t_launch,launchFlag,yaw,pitch,roll,altitude,accel_x,accel_y,accel_z,TVCPitch,TVCYaw
6.291000,0,164.407303,61.926876,-61.025360,98.625519,0.020000,0.030000,-0.050000,0.000000,39.139999
8.334000,0,-147.505310,11.214979,-9.493819,99.716774,-0.220000,-0.140000,-0.860000,0.000000,0.000000
10.376000,0,93.845276,85.808189,-42.459095,98.205391,-0.040000,-0.470000,0.150000,0.000000,0.000000
12.410000,0,94.593552,85.803185,-47.501167,98.456413,0.050000,-0.170000,-0.010000,0.000000,0.000000
14.442000,0,94.690720,85.946823,-49.089855,98.625519,-0.150000,0.000000,0.150000,0.000000,0.000000
16.479000,0,94.683296,84.995872,-42.997898,98.540962,0.060000,-0.100000,-0.110000,0.000000,0.000000
18.517000,0,94.452972,85.494751,-44.576557,98.540962,-0.080000,-0.010000,-0.060000,0.000000,0.000000
5.308000,0,-105.620781,0.936700,-0.252245,99.130188,-0.020000,-0.020000,-0.290000,0.000000,39.139999
7.314000,0,-105.620781,0.936700,-0.252245,98.540962,-0.010000,-0.010000,-0.270000,0.000000,0.000000
9.319000,0,-105.620781,0.936700,-0.252245,98.456413,0.040000,-0.040000,-0.490000,0.000000,0.000000
0.048000,1,77.294052,2.512636,0.552990,97.616165,0.600000,-1.480000,1.370000,7.500000,7.500000
0.096000,1,106.680496,5.357854,-1.542055,98.205391,0.090000,-2.810000,0.050000,7.500000,-7.500000
0.143000,1,111.826050,7.638306,-2.854347,97.700722,-1.550000,-0.610000,0.110000,7.500000,-7.500000
0.191000,1,119.106140,7.651245,-3.738714,97.531616,-0.050000,0.990000,-0.610000,7.500000,-7.500000
0.238000,1,134.252289,4.937251,-3.449668,97.954376,-1.580000,2.230000,0.530000,7.500000,-7.500000
0.285000,1,154.396362,2.796804,-2.522573,98.120842,-1.050000,1.330000,0.020000,7.500000,-7.500000
0.332000,1,166.299805,2.816194,-2.736195,98.456413,-0.800000,7.300000,1.220000,7.500000,-7.500000
0.379000,1,174.056290,1.438719,-1.431013,98.540962,0.060000,5.240000,-1.050000,7.500000,-7.500000
0.426000,1,17.340578,2.413462,2.303952,98.710068,0.840000,-2.440000,0.880000,7.500000,7.500000
0.473000,1,10.954549,2.471084,2.426126,98.876534,0.640000,-3.830000,-0.880000,7.500000,7.500000
0.522000,1,-14.489105,3.998313,3.871537,98.876534,0.220000,-3.360000,-1.370000,7.500000,7.500000
0.572000,1,-27.698019,5.380518,4.766871,99.045639,0.250000,-2.300000,-0.790000,7.500000,7.500000
0.621000,1,-35.019852,6.067889,4.975445,98.540962,0.470000,-1.020000,-0.370000,7.500000,7.500000
0.671000,1,-39.282200,7.143996,5.541110,98.625519,0.060000,-1.220000,-0.080000,7.500000,7.500000
0.720000,1,-45.065067,7.634888,5.408577,99.130188,0.350000,-1.030000,-0.040000,7.500000,7.500000
0.768000,1,-56.754002,8.088400,4.454909,98.794624,0.620000,-1.360000,0.000000,7.500000,7.500000
0.815000,1,-69.327904,9.405795,3.346812,99.045639,1.110000,-1.310000,-0.750000,7.500000,7.500000
0.863000,1,-77.550667,11.211695,2.446768,99.465759,0.940000,-1.810000,-1.790000,7.500000,7.500000
0.912000,1,-83.570297,13.263448,1.512046,98.876534,1.160000,-0.720000,-1.260000,7.500000,7.500000
0.962000,1,-85.098671,15.288621,1.337927,99.214745,-0.190000,-0.230000,-2.020000,7.500000,7.500000
1.011000,1,-90.104126,16.271938,-0.030395,99.130188,-1.530000,1.170000,-2.080000,7.500000,7.500000
1.060000,1,-89.723946,14.153133,0.069610,98.540962,-2.600000,1.490000,-1.940000,7.500000,7.500000
1.108000,1,-89.938622,11.320964,0.012288,98.289948,-1.890000,2.450000,-0.410000,7.500000,7.500000
1.155000,1,-83.383194,6.836096,0.791435,98.374496,-1.020000,-0.460000,1.390000,7.500000,7.500000
1.204000,1,-93.919266,3.917866,-0.268209,97.954376,1.450000,0.160000,3.300000,7.500000,7.500000
1.253000,1,-168.016769,3.384429,-3.310799,100.726120,0.060000,2.150000,-0.300000,7.500000,7.500000
1.302000,1,-145.336548,3.750349,-3.086134,102.995834,1.210000,0.350000,0.090000,7.500000,7.500000
1.352000,1,-130.426010,3.973650,-2.579188,102.744820,-0.900000,0.320000,-0.130000,7.500000,7.500000
1.401000,1,-132.114441,3.365576,-2.258421,102.995834,-0.380000,-0.110000,-0.230000,7.500000,7.500000
1.448000,1,-136.277649,2.915509,-2.107830,103.164940,-0.040000,0.200000,-0.350000,7.500000,7.500000
1.495000,1,-138.652908,2.685038,-2.016308,103.585060,-0.210000,0.000000,-0.250000,7.500000,7.500000
1.542000,1,-145.554871,2.671444,-2.203598,103.249496,0.050000,0.330000,-0.110000,7.500000,7.500000
1.589000,1,-141.138123,0.812770,-0.632913,101.989128,-0.420000,-0.930000,0.630000,7.500000,7.500000
1.637000,1,-94.786102,0.914502,-0.076310,99.296654,0.100000,0.230000,0.160000,7.500000,7.500000
1.685000,1,-94.746529,0.921536,-0.076256,97.111496,-0.100000,0.000000,-0.100000,7.500000,7.500000
1.732000,1,-93.920372,0.913003,-0.062435,114.524078,-0.040000,0.110000,-0.270000,7.500000,7.500000
1.779000,1,-93.520363,0.905470,-0.055607,114.439522,-0.080000,0.020000,-0.270000,7.500000,7.500000
1.827000,1,-93.558258,0.898528,-0.055772,114.524078,-0.060000,0.040000,-0.280000,7.500000,7.500000
1.876000,1,-93.148659,0.891093,-0.048945,114.270416,-0.090000,0.060000,-0.290000,7.500000,7.500000
1.925000,1,-92.732086,0.883595,-0.042117,114.690544,-0.070000,0.060000,-0.270000,7.500000,7.500000
1.975000,1,-92.732086,0.883595,-0.042117,115.028755,-0.080000,0.040000,-0.320000,7.500000,7.500000
2.024000,1,-92.308403,0.876033,-0.035289,113.934853,-0.080000,0.030000,-0.270000,7.500000,7.500000
2.073000,1,-92.337852,0.869081,-0.035454,114.270416,-0.060000,0.040000,-0.290000,7.500000,7.500000
2.120000,1,-91.903694,0.861619,-0.028627,114.524078,-0.060000,0.060000,-0.290000,7.500000,7.500000
2.167000,1,-91.462029,0.854321,-0.021799,114.944199,-0.060000,0.020000,-0.300000,7.500000,7.500000
2.216000,1,-91.462029,0.854321,-0.021799,114.354973,-0.070000,0.030000,-0.300000,7.500000,7.500000
2.266000,1,-91.485260,0.847422,-0.021964,114.690544,-0.060000,0.030000,-0.320000,7.500000,7.500000
2.315000,1,-91.032417,0.840000,-0.015137,114.944199,-0.050000,0.060000,-0.310000,7.500000,7.500000
2.364000,1,-90.571655,0.832748,-0.008309,114.775093,-0.050000,0.020000,-0.310000,7.500000,7.500000
2.412000,1,-90.571655,0.832748,-0.008309,114.690544,-0.050000,0.010000,-0.300000,7.500000,7.500000
2.459000,1,-90.587952,0.825668,-0.008475,115.197861,-0.040000,0.060000,-0.290000,7.500000,7.500000
2.507000,1,-90.102837,0.825668,-0.001482,114.859650,-0.050000,0.040000,-0.290000,7.500000,7.500000
2.556000,1,-90.115273,0.818527,-0.001647,114.859650,-0.060000,0.020000,-0.280000,7.500000,7.500000
2.606000,1,-90.115273,0.818527,-0.001647,115.279770,-0.070000,0.020000,-0.280000,7.500000,7.500000
2.655000,1,-89.634232,0.811324,0.005180,114.608627,-0.050000,0.030000,-0.310000,7.500000,7.500000
2.704000,1,-89.642822,0.804542,0.005015,114.524078,-0.060000,0.040000,-0.260000,7.500000,7.500000
2.752000,1,-89.642822,0.804542,0.005015,114.524078,-0.050000,0.010000,-0.270000,7.500000,7.500000
2.799000,1,-89.642822,0.804542,0.005015,115.197861,-0.060000,0.040000,-0.300000,7.500000,7.500000
2.848000,1,-89.642822,0.804542,0.005015,114.775093,-0.050000,0.030000,-0.260000,7.500000,7.500000
2.897000,1,-89.642822,0.804542,0.005015,114.524078,-0.050000,0.020000,-0.300000,7.500000,7.500000
2.946000,1,-89.642822,0.804542,0.005015,115.028755,-0.050000,0.030000,-0.260000,7.500000,7.500000
2.996000,1,-89.642822,0.804542,0.005015,114.944199,-0.070000,0.030000,-0.290000,7.500000,7.500000
3.044000,1,-89.642822,0.804542,0.005015,115.279770,-0.040000,0.030000,-0.300000,7.500000,7.500000
3.091000,1,-89.642822,0.804542,0.005015,115.028755,-0.040000,0.010000,-0.260000,7.500000,7.500000
3.139000,1,-89.642822,0.804542,0.005015,114.944199,-0.060000,0.000000,-0.280000,7.500000,7.500000
3.188000,1,-89.642822,0.804542,0.005015,115.113304,-0.060000,0.020000,-0.280000,7.500000,7.500000
3.235000,1,-89.642822,0.804542,0.005015,114.859650,-0.070000,0.030000,-0.280000,7.500000,7.500000
3.282000,1,-89.642822,0.804542,0.005015,114.354973,-0.070000,0.000000,-0.280000,7.500000,7.500000
3.330000,1,-89.642822,0.804542,0.005015,114.690544,-0.060000,0.010000,-0.310000,7.500000,7.500000
3.379000,1,-89.642822,0.804542,0.005015,114.608627,-0.060000,0.030000,-0.280000,7.500000,7.500000
3.429000,1,-89.642822,0.804542,0.005015,115.028755,-0.060000,0.010000,-0.300000,7.500000,7.500000
3.478000,1,-89.642822,0.804542,0.005015,115.028755,-0.050000,0.030000,-0.280000,7.500000,7.500000
3.527000,1,-89.642822,0.804542,0.005015,114.775093,-0.060000,0.000000,-0.270000,7.500000,7.500000
3.576000,1,-89.642822,0.804542,0.005015,114.690544,-0.050000,0.040000,-0.280000,7.500000,7.500000
3.624000,1,-89.642822,0.804542,0.005015,114.944199,-0.050000,0.030000,-0.300000,7.500000,7.500000
3.671000,1,-89.642822,0.804542,0.005015,114.608627,-0.060000,0.030000,-0.290000,7.500000,7.500000
3.720000,1,-89.642822,0.804542,0.005015,114.944199,-0.070000,0.010000,-0.290000,7.500000,7.500000
3.769000,1,-89.642822,0.804542,0.005015,115.028755,-0.050000,0.020000,-0.290000,7.500000,7.500000
3.819000,1,-89.642822,0.804542,0.005015,114.859650,-0.070000,0.010000,-0.300000,7.500000,7.500000
3.868000,1,-89.642822,0.804542,0.005015,114.690544,-0.050000,0.020000,-0.300000,7.500000,7.500000
3.917000,1,-89.642822,0.804542,0.005015,114.690544,-0.060000,0.030000,-0.290000,7.500000,7.500000
3.964000,1,-89.642822,0.804542,0.005015,114.944199,-0.060000,0.030000,-0.300000,7.500000,7.500000
4.012000,1,-89.642822,0.804542,0.005015,114.944199,-0.050000,0.020000,-0.310000,7.500000,7.500000
4.061000,1,-89.642822,0.804542,0.005015,114.019402,-0.050000,0.010000,-0.260000,7.500000,7.500000
4.110000,1,-89.642822,0.804542,0.005015,113.681190,-0.040000,0.030000,-0.290000,7.500000,7.500000
4.159000,1,-89.642822,0.804542,0.005015,111.659851,-0.070000,0.020000,-0.270000,7.500000,7.500000
4.209000,1,-89.642822,0.804542,0.005015,108.042580,-0.060000,0.030000,-0.280000,7.500000,7.500000
4.257000,1,-89.642822,0.804542,0.005015,106.782219,-0.040000,0.030000,-0.290000,7.500000,7.500000
4.304000,1,-89.642822,0.804542,0.005015,108.547256,-0.060000,0.020000,-0.290000,7.500000,7.500000
4.352000,1,-89.642822,0.804542,0.005015,110.230385,-0.060000,0.020000,-0.280000,7.500000,7.500000
4.401000,1,-89.642822,0.804542,0.005015,111.073265,-0.060000,0.020000,-0.270000,7.500000,7.500000
4.451000,1,-89.642822,0.804542,0.005015,112.333633,-0.060000,0.010000,-0.260000,7.500000,7.500000
4.500000,1,-89.642822,0.804542,0.005015,113.261070,-0.060000,0.010000,-0.260000,7.500000,7.500000
4.549000,1,-89.642822,0.804542,0.005015,114.019402,-0.070000,0.030000,-0.250000,7.500000,7.500000
4.597000,1,-89.642822,0.804542,0.005015,114.354973,-0.050000,0.020000,-0.310000,7.500000,7.500000
4.644000,1,-89.642822,0.804542,0.005015,114.608627,-0.070000,0.030000,-0.280000,7.500000,7.500000
4.693000,1,-89.642822,0.804542,0.005015,114.439522,-0.040000,0.030000,-0.260000,7.500000,7.500000
4.740000,1,-89.642822,0.804542,0.005015,114.690544,-0.070000,0.030000,-0.280000,7.500000,7.500000
4.787000,1,-89.642822,0.804542,0.005015,114.608627,-0.050000,0.030000,-0.260000,7.500000,7.500000
4.834000,1,-89.642822,0.804542,0.005015,114.439522,-0.080000,-0.010000,-0.280000,7.500000,7.500000
4.883000,1,-89.642822,0.804542,0.005015,114.944199,-0.070000,0.040000,-0.280000,7.500000,7.500000
4.933000,1,-89.642822,0.804542,0.005015,114.690544,-0.060000,0.010000,-0.310000,7.500000,7.500000
4.982000,1,-89.642822,0.804542,0.005015,114.690544,-0.080000,0.040000,-0.270000,7.500000,7.500000
5.031000,1,-89.642822,0.804542,0.005015,114.690544,-0.050000,0.000000,-0.300000,7.500000,7.500000
5.081000,1,-89.642822,0.804542,0.005015,114.944199,-0.080000,0.030000,-0.270000,7.500000,7.500000
5.129000,1,-89.642822,0.804542,0.005015,114.690544,-0.070000,0.030000,-0.290000,7.500000,7.500000
5.176000,1,-89.642822,0.804542,0.005015,114.690544,-0.060000,0.020000,-0.260000,7.500000,7.500000
5.224000,1,-89.642822,0.804542,0.005015,114.859650,-0.070000,0.020000,-0.290000,7.500000,7.500000
5.273000,1,-89.642822,0.804542,0.005015,114.690544,-0.050000,0.020000,-0.270000,7.500000,7.500000
5.323000,1,-89.642822,0.804542,0.005015,114.101311,-0.050000,0.020000,-0.290000,7.500000,7.500000
5.372000,1,-89.642822,0.804542,0.005015,114.524078,-0.060000,0.020000,-0.310000,7.500000,7.500000
5.421000,1,-89.642822,0.804542,0.005015,114.185867,-0.050000,0.030000,-0.300000,7.500000,7.500000
5.469000,1,-89.642822,0.804542,0.005015,114.775093,-0.060000,0.020000,-0.260000,7.500000,7.500000
5.516000,1,-89.642822,0.804542,0.005015,114.775093,-0.050000,0.020000,-0.290000,7.500000,7.500000
5.565000,1,-89.642822,0.804542,0.005015,115.028755,-0.060000,0.030000,-0.280000,7.500000,7.500000
5.614000,1,-89.642822,0.804542,0.005015,115.197861,-0.050000,0.000000,-0.300000,7.500000,7.500000
5.663000,1,-89.642822,0.804542,0.005015,115.279770,-0.050000,0.030000,-0.280000,7.500000,7.500000
5.713000,1,-89.642822,0.804542,0.005015,115.279770,-0.060000,0.030000,-0.290000,7.500000,7.500000
5.761000,1,-89.642822,0.804542,0.005015,115.364319,-0.060000,-0.010000,-0.290000,7.500000,7.500000
5.809000,1,-89.642822,0.804542,0.005015,115.533424,-0.070000,0.040000,-0.280000,7.500000,7.500000
5.856000,1,-89.642822,0.804542,0.005015,114.944199,-0.060000,0.020000,-0.290000,7.500000,7.500000
5.905000,1,-89.642822,0.804542,0.005015,115.197861,-0.060000,0.010000,-0.260000,7.500000,7.500000
5.955000,1,-89.642822,0.804542,0.005015,115.113304,-0.060000,0.020000,-0.270000,7.500000,7.500000
6.004000,1,-89.642822,0.804542,0.005015,114.944199,-0.060000,0.030000,-0.290000,7.500000,7.500000
6.053000,1,-89.642822,0.804542,0.005015,115.028755,-0.070000,0.030000,-0.280000,7.500000,7.500000
6.102000,1,-89.642822,0.804542,0.005015,115.279770,-0.070000,0.010000,-0.290000,7.500000,7.500000
6.149000,1,-89.642822,0.804542,0.005015,114.944199,-0.050000,0.030000,-0.280000,7.500000,7.500000
6.197000,1,-89.642822,0.804542,0.005015,114.859650,-0.050000,0.030000,-0.280000,7.500000,7.500000
6.245000,1,-89.642822,0.804542,0.005015,115.028755,-0.040000,0.010000,-0.260000,7.500000,7.500000
6.292000,1,-89.642822,0.804542,0.005015,114.944199,-0.050000,0.020000,-0.280000,7.500000,7.500000
6.339000,1,-89.642822,0.804542,0.005015,115.197861,-0.060000,0.020000,-0.270000,7.500000,7.500000
6.387000,1,-89.642822,0.804542,0.005015,114.775093,-0.050000,0.030000,-0.290000,7.500000,7.500000
6.436000,1,-89.642822,0.804542,0.005015,114.775093,-0.040000,0.020000,-0.250000,7.500000,7.500000
6.486000,1,-89.642822,0.804542,0.005015,114.690544,-0.070000,0.010000,-0.300000,7.500000,7.500000
6.535000,1,-89.642822,0.804542,0.005015,114.859650,-0.070000,0.010000,-0.270000,7.500000,7.500000
6.585000,1,-89.642822,0.804542,0.005015,115.028755,-0.050000,0.030000,-0.280000,7.500000,7.500000
6.633000,1,-89.642822,0.804542,0.005015,114.944199,-0.060000,0.050000,-0.280000,7.500000,7.500000
6.680000,1,-89.642822,0.804542,0.005015,115.113304,-0.060000,0.010000,-0.280000,7.500000,7.500000
6.728000,1,-89.642822,0.804542,0.005015,115.113304,-0.070000,0.000000,-0.310000,7.500000,7.500000
6.777000,1,-89.642822,0.804542,0.005015,115.028755,-0.050000,0.030000,-0.290000,7.500000,7.500000
6.826000,1,-89.642822,0.804542,0.005015,114.944199,-0.070000,0.010000,-0.300000,7.500000,7.500000
6.876000,1,-89.642822,0.804542,0.005015,115.028755,-0.060000,0.020000,-0.300000,7.500000,7.500000
6.925000,1,-89.642822,0.804542,0.005015,115.028755,-0.050000,0.020000,-0.290000,7.500000,7.500000
6.973000,1,-89.642822,0.804542,0.005015,114.775093,-0.060000,0.020000,-0.310000,7.500000,7.500000
7.020000,1,-89.642822,0.804542,0.005015,115.197861,-0.060000,0.010000,-0.310000,7.500000,7.500000
7.068000,1,-89.642822,0.804542,0.005015,115.364319,-0.050000,0.000000,-0.300000,7.500000,7.500000
7.118000,1,-89.642822,0.804542,0.005015,115.028755,-0.050000,0.020000,-0.290000,7.500000,7.500000
7.167000,1,-89.642822,0.804542,0.005015,114.690544,-0.060000,0.010000,-0.260000,7.500000,7.500000
7.216000,1,-89.642822,0.804542,0.005015,115.028755,-0.070000,0.010000,-0.270000,7.500000,7.500000
7.265000,1,-89.642822,0.804542,0.005015,114.524078,-0.050000,0.010000,-0.270000,7.500000,7.500000
7.313000,1,-89.642822,0.804542,0.005015,114.944199,-0.060000,0.020000,-0.280000,7.500000,7.500000
7.360000,1,-89.642822,0.804542,0.005015,114.859650,-0.060000,0.020000,-0.270000,7.500000,7.500000
7.409000,1,-89.642822,0.804542,0.005015,115.448875,-0.040000,0.030000,-0.290000,7.500000,7.500000
7.458000,1,-89.642822,0.804542,0.005015,115.533424,-0.060000,0.010000,-0.280000,7.500000,7.500000
7.508000,1,-89.642822,0.804542,0.005015,115.448875,-0.060000,0.020000,-0.250000,7.500000,7.500000
7.557000,1,-89.642822,0.804542,0.005015,115.364319,-0.050000,0.020000,-0.250000,7.500000,7.500000
7.606000,1,-89.642822,0.804542,0.005015,114.944199,-0.040000,0.010000,-0.260000,7.500000,7.500000
7.653000,1,-89.642822,0.804542,0.005015,115.617981,-0.050000,0.020000,-0.250000,7.500000,7.500000
7.701000,1,-89.642822,0.804542,0.005015,114.690544,-0.040000,0.020000,-0.280000,7.500000,7.500000
7.749000,1,-89.642822,0.804542,0.005015,115.617981,-0.060000,0.030000,-0.290000,7.500000,7.500000
7.796000,1,-89.642822,0.804542,0.005015,114.944199,-0.060000,0.000000,-0.280000,7.500000,7.500000
7.843000,1,-89.642822,0.804542,0.005015,114.524078,-0.070000,0.020000,-0.290000,7.500000,7.500000
7.891000,1,-89.642822,0.804542,0.005015,115.279770,-0.050000,0.010000,-0.280000,7.500000,7.500000
7.940000,1,-89.642822,0.804542,0.005015,114.944199,-0.070000,0.010000,-0.280000,7.500000,7.500000
7.990000,1,-89.642822,0.804542,0.005015,114.439522,-0.050000,0.010000,-0.300000,7.500000,7.500000
8.039000,1,-89.642822,0.804542,0.005015,115.197861,-0.070000,0.020000,-0.300000,7.500000,7.500000
8.089000,1,-89.642822,0.804542,0.005015,114.775093,-0.070000,0.030000,-0.270000,7.500000,7.500000
8.138000,1,-89.642822,0.804542,0.005015,115.113304,-0.070000,0.010000,-0.300000,7.500000,7.500000
8.185000,1,-89.642822,0.804542,0.005015,115.113304,-0.050000,0.000000,-0.260000,7.500000,7.500000
8.232000,1,-89.642822,0.804542,0.005015,115.364319,-0.070000,0.020000,-0.280000,7.500000,7.500000
8.281000,1,-89.642822,0.804542,0.005015,104.509857,-0.080000,0.030000,-0.280000,7.500000,7.500000
8.330000,1,-89.642822,0.804542,0.005015,99.885880,-0.060000,0.030000,-0.280000,7.500000,7.500000
8.380000,1,-89.642822,0.804542,0.005015,99.381203,-0.060000,0.020000,-0.280000,7.500000,7.500000
8.429000,1,-89.642822,0.804542,0.005015,99.296654,-0.070000,0.020000,-0.290000,7.500000,7.500000
8.478000,1,-89.642822,0.804542,0.005015,98.710068,-0.080000,0.000000,-0.280000,7.500000,7.500000
8.525000,1,-89.642822,0.804542,0.005015,98.961082,-0.070000,0.000000,-0.330000,7.500000,7.500000
8.573000,1,-89.642822,0.804542,0.005015,99.045639,-0.060000,0.010000,-0.300000,7.500000,7.500000
8.622000,1,-89.642822,0.804542,0.005015,99.296654,-0.060000,0.020000,-0.280000,7.500000,7.500000
8.671000,1,-89.642822,0.804542,0.005015,99.550308,-0.050000,0.040000,-0.280000,7.500000,7.500000
8.720000,1,-89.642822,0.804542,0.005015,99.045639,-0.060000,0.020000,-0.280000,7.500000,7.500000
8.770000,1,-89.642822,0.804542,0.005015,99.130188,-0.060000,0.030000,-0.280000,7.500000,7.500000
8.818000,1,-89.642822,0.804542,0.005015,99.045639,-0.040000,0.020000,-0.310000,7.500000,7.500000
8.865000,1,-89.642822,0.804542,0.005015,99.214745,-0.060000,0.020000,-0.280000,7.500000,7.500000
8.913000,1,-89.642822,0.804542,0.005015,99.045639,-0.060000,0.030000,-0.270000,7.500000,7.500000
8.962000,1,-89.642822,0.804542,0.005015,99.296654,-0.060000,0.010000,-0.300000,7.500000,7.500000
9.012000,1,-89.642822,0.804542,0.005015,99.130188,-0.060000,0.010000,-0.260000,7.500000,7.500000
9.061000,1,-89.642822,0.804542,0.005015,98.961082,-0.070000,0.010000,-0.280000,7.500000,7.500000
9.110000,1,-89.642822,0.804542,0.005015,99.045639,-0.050000,0.020000,-0.270000,7.500000,7.500000
9.158000,1,-89.642822,0.804542,0.005015,99.045639,-0.060000,0.010000,-0.270000,7.500000,7.500000
9.205000,1,-89.642822,0.804542,0.005015,98.876534,-0.060000,0.020000,-0.260000,7.500000,7.500000
9.254000,1,-89.642822,0.804542,0.005015,99.214745,-0.050000,0.020000,-0.290000,7.500000,7.500000
9.302000,1,-89.642822,0.804542,0.005015,98.961082,-0.060000,0.010000,-0.290000,7.500000,7.500000
9.349000,1,-89.642822,0.804542,0.005015,99.130188,-0.040000,0.000000,-0.300000,7.500000,7.500000
9.396000,1,-89.642822,0.804542,0.005015,99.381203,-0.060000,0.040000,-0.280000,7.500000,7.500000
9.445000,1,-89.642822,0.804542,0.005015,98.876534,-0.080000,0.030000,-0.270000,7.500000,7.500000
9.494000,1,-89.642822,0.804542,0.005015,98.625519,-0.050000,0.000000,-0.280000,7.500000,7.500000
9.543000,1,-89.642822,0.804542,0.005015,98.710068,-0.060000,0.020000,-0.310000,7.500000,7.500000
9.593000,1,-89.642822,0.804542,0.005015,99.130188,-0.060000,0.030000,-0.300000,7.500000,7.500000
9.642000,1,-89.642822,0.804542,0.005015,98.876534,-0.050000,0.020000,-0.290000,7.500000,7.500000
9.690000,1,-89.642822,0.804542,0.005015,99.045639,-0.040000,0.040000,-0.280000,7.500000,7.500000
9.737000,1,-89.642822,0.804542,0.005015,99.130188,-0.070000,0.040000,-0.290000,7.500000,7.500000
9.785000,1,-89.642822,0.804542,0.005015,99.550308,-0.060000,0.030000,-0.300000,7.500000,7.500000
9.834000,1,-89.642822,0.804542,0.005015,99.214745,-0.070000,0.010000,-0.290000,7.500000,7.500000
9.884000,1,-89.642822,0.804542,0.005015,111.913513,-0.060000,0.040000,-0.280000,7.500000,7.500000
9.933000,1,-89.642822,0.804542,0.005015,114.775093,-0.060000,0.020000,-0.290000,7.500000,7.500000
9.982000,1,-89.642822,0.804542,0.005015,115.279770,-0.070000,0.010000,-0.300000,7.500000,7.500000
10.031000,1,-89.642822,0.804542,0.005015,115.364319,-0.070000,0.030000,-0.290000,7.500000,7.500000
10.078000,1,-89.642822,0.804542,0.005015,115.028755,-0.060000,0.020000,-0.310000,7.500000,7.500000
10.126000,1,-89.642822,0.804542,0.005015,115.028755,-0.050000,0.040000,-0.300000,7.500000,7.500000
10.175000,1,-89.642822,0.804542,0.005015,115.028755,-0.050000,0.020000,-0.280000,7.500000,7.500000
10.224000,1,-89.642822,0.804542,0.005015,115.279770,-0.050000,0.000000,-0.290000,7.500000,7.500000
10.274000,1,-89.642822,0.804542,0.005015,115.197861,-0.060000,0.020000,-0.290000,7.500000,7.500000
10.323000,1,-89.642822,0.804542,0.005015,114.775093,-0.060000,0.020000,-0.280000,7.500000,7.500000
10.371000,1,-89.642822,0.804542,0.005015,115.279770,-0.080000,0.020000,-0.290000,7.500000,7.500000
10.418000,1,-89.642822,0.804542,0.005015,115.028755,-0.080000,0.010000,-0.250000,7.500000,7.500000
10.466000,1,-89.642822,0.804542,0.005015,115.028755,-0.080000,0.030000,-0.300000,7.500000,7.500000
10.516000,1,-89.642822,0.804542,0.005015,114.775093,-0.050000,0.020000,-0.270000,7.500000,7.500000
10.565000,1,-89.642822,0.804542,0.005015,115.197861,-0.050000,0.040000,-0.290000,7.500000,7.500000
10.614000,1,-89.642822,0.804542,0.005015,114.775093,-0.070000,0.030000,-0.280000,7.500000,7.500000
10.663000,1,-89.642822,0.804542,0.005015,114.944199,-0.060000,0.020000,-0.260000,7.500000,7.500000
10.710000,1,-89.642822,0.804542,0.005015,114.608627,-0.080000,0.010000,-0.270000,7.500000,7.500000
10.758000,1,-89.642822,0.804542,0.005015,115.028755,-0.040000,0.040000,-0.290000,7.500000,7.500000
10.807000,1,-89.642822,0.804542,0.005015,115.197861,-0.050000,0.030000,-0.260000,7.500000,7.500000
10.854000,1,-89.642822,0.804542,0.005015,114.608627,-0.050000,0.040000,-0.270000,7.500000,7.500000
10.901000,1,-89.642822,0.804542,0.005015,114.690544,-0.050000,0.000000,-0.280000,7.500000,7.500000
10.949000,1,-89.642822,0.804542,0.005015,114.775093,-0.070000,0.030000,-0.290000,7.500000,7.500000
10.998000,1,-89.642822,0.804542,0.005015,114.690544,-0.060000,0.020000,-0.300000,7.500000,7.500000
11.047000,1,-89.642822,0.804542,0.005015,114.524078,-0.050000,0.020000,-0.290000,7.500000,7.500000
11.097000,1,-89.642822,0.804542,0.005015,114.439522,-0.060000,0.020000,-0.280000,7.500000,7.500000
11.146000,1,-89.642822,0.804542,0.005015,114.608627,-0.050000,0.030000,-0.280000,7.500000,7.500000
11.195000,1,-89.642822,0.804542,0.005015,114.775093,-0.050000,0.010000,-0.280000,7.500000,7.500000
11.243000,1,-89.642822,0.804542,0.005015,114.439522,-0.070000,0.030000,-0.300000,7.500000,7.500000
11.290000,1,-89.642822,0.804542,0.005015,114.944199,-0.060000,0.010000,-0.270000,7.500000,7.500000
11.339000,1,-89.642822,0.804542,0.005015,114.944199,-0.060000,0.020000,-0.270000,7.500000,7.500000
11.388000,1,-89.642822,0.804542,0.005015,114.690544,-0.030000,0.010000,-0.300000,7.500000,7.500000
11.437000,1,-89.642822,0.804542,0.005015,114.944199,-0.050000,0.020000,-0.310000,7.500000,7.500000
11.487000,1,-89.642822,0.804542,0.005015,114.859650,-0.040000,0.020000,-0.280000,7.500000,7.500000
11.536000,1,-89.642822,0.804542,0.005015,114.944199,-0.060000,0.000000,-0.290000,7.500000,7.500000
11.583000,1,-89.642822,0.804542,0.005015,114.690544,-0.070000,0.010000,-0.310000,7.500000,7.500000
11.630000,1,-89.642822,0.804542,0.005015,114.775093,-0.070000,0.020000,-0.290000,7.500000,7.500000
11.679000,1,-89.642822,0.804542,0.005015,114.775093,-0.060000,0.030000,-0.280000,7.500000,7.500000
11.729000,1,-89.642822,0.804542,0.005015,114.690544,-0.060000,0.000000,-0.300000,7.500000,7.500000
11.778000,1,-89.642822,0.804542,0.005015,114.944199,-0.060000,0.020000,-0.300000,7.500000,7.500000
11.827000,1,-89.642822,0.804542,0.005015,114.859650,-0.060000,0.010000,-0.260000,7.500000,7.500000
11.876000,1,-89.642822,0.804542,0.005015,114.354973,-0.060000,0.030000,-0.300000,7.500000,7.500000
11.923000,1,-89.642822,0.804542,0.005015,114.439522,-0.060000,0.020000,-0.280000,7.500000,7.500000
11.971000,1,-89.642822,0.804542,0.005015,114.859650,-0.070000,0.030000,-0.270000,7.500000,7.500000
12.020000,1,-89.642822,0.804542,0.005015,114.270416,-0.080000,0.010000,-0.260000,7.500000,7.500000
12.069000,1,-89.642822,0.804542,0.005015,114.690544,-0.060000,0.010000,-0.280000,7.500000,7.500000
12.119000,1,-89.642822,0.804542,0.005015,114.439522,-0.070000,0.020000,-0.280000,7.500000,7.500000
12.168000,1,-89.642822,0.804542,0.005015,114.944199,-0.050000,0.020000,-0.310000,7.500000,7.500000
12.216000,1,-89.642822,0.804542,0.005015,115.113304,-0.060000,0.030000,-0.260000,7.500000,7.500000
12.263000,1,-89.642822,0.804542,0.005015,114.859650,-0.060000,0.010000,-0.290000,7.500000,7.500000
12.311000,1,-89.642822,0.804542,0.005015,115.448875,-0.050000,0.000000,-0.270000,7.500000,7.500000
12.359000,1,-89.642822,0.804542,0.005015,115.197861,-0.070000,0.030000,-0.270000,7.500000,7.500000
12.406000,1,-89.642822,0.804542,0.005015,115.113304,-0.070000,0.020000,-0.280000,7.500000,7.500000
12.453000,1,-89.642822,0.804542,0.005015,115.533424,-0.060000,0.010000,-0.270000,7.500000,7.500000
12.502000,1,-89.642822,0.804542,0.005015,115.197861,-0.070000,0.020000,-0.300000,7.500000,7.500000
12.551000,1,-89.642822,0.804542,0.005015,115.028755,-0.060000,0.020000,-0.270000,7.500000,7.500000
12.600000,1,-89.642822,0.804542,0.005015,115.028755,-0.070000,0.030000,-0.260000,7.500000,7.500000
12.650000,1,-89.642822,0.804542,0.005015,114.524078,-0.070000,0.020000,-0.300000,7.500000,7.500000
12.699000,1,-89.642822,0.804542,0.005015,115.364319,-0.080000,0.020000,-0.270000,7.500000,7.500000
12.747000,1,-89.642822,0.804542,0.005015,115.197861,-0.060000,0.010000,-0.290000,7.500000,7.500000
12.794000,1,-89.642822,0.804542,0.005015,115.197861,-0.070000,0.010000,-0.290000,7.500000,7.500000
12.842000,1,-89.642822,0.804542,0.005015,114.690544,-0.060000,0.010000,-0.280000,7.500000,7.500000
12.892000,1,-89.642822,0.804542,0.005015,115.279770,-0.060000,0.020000,-0.290000,7.500000,7.500000
12.941000,1,-89.642822,0.804542,0.005015,115.448875,-0.060000,0.030000,-0.310000,7.500000,7.500000
12.990000,1,-89.642822,0.804542,0.005015,115.279770,-0.060000,0.020000,-0.280000,7.500000,7.500000
13.040000,1,-89.642822,0.804542,0.005015,115.364319,-0.050000,0.020000,-0.320000,7.500000,7.500000
13.087000,1,-89.642822,0.804542,0.005015,115.533424,-0.060000,0.010000,-0.310000,7.500000,7.500000
13.134000,1,-89.642822,0.804542,0.005015,115.279770,-0.060000,0.020000,-0.290000,7.500000,7.500000
13.183000,1,-89.642822,0.804542,0.005015,115.028755,-0.080000,0.010000,-0.310000,7.500000,7.500000
13.232000,1,-89.642822,0.804542,0.005015,115.028755,-0.060000,0.000000,-0.270000,7.500000,7.500000
13.282000,1,-89.642822,0.804542,0.005015,115.113304,-0.060000,0.030000,-0.270000,7.500000,7.500000
13.331000,1,-89.642822,0.804542,0.005015,115.448875,-0.070000,0.020000,-0.270000,7.500000,7.500000
13.380000,1,-89.642822,0.804542,0.005015,115.197861,-0.060000,0.030000,-0.280000,7.500000,7.500000
13.427000,1,-89.642822,0.804542,0.005015,115.197861,-0.070000,0.030000,-0.280000,7.500000,7.500000
13.475000,1,-89.642822,0.804542,0.005015,115.953545,-0.040000,0.030000,-0.280000,7.500000,7.500000
13.523000,1,-89.642822,0.804542,0.005015,115.787086,-0.070000,0.000000,-0.290000,7.500000,7.500000
13.573000,1,-89.642822,0.804542,0.005015,114.944199,-0.060000,0.000000,-0.280000,7.500000,7.500000
13.622000,1,-89.642822,0.804542,0.005015,115.197861,-0.070000,0.010000,-0.300000,7.500000,7.500000
13.672000,1,-89.642822,0.804542,0.005015,115.787086,-0.060000,0.000000,-0.280000,7.500000,7.500000
13.720000,1,-89.642822,0.804542,0.005015,115.028755,-0.070000,0.010000,-0.300000,7.500000,7.500000
13.768000,1,-89.642822,0.804542,0.005015,115.028755,-0.060000,0.010000,-0.260000,7.500000,7.500000
13.815000,1,-89.642822,0.804542,0.005015,115.448875,-0.050000,0.000000,-0.280000,7.500000,7.500000
13.864000,1,-89.642822,0.804542,0.005015,115.617981,-0.060000,0.020000,-0.270000,7.500000,7.500000
13.911000,1,-89.642822,0.804542,0.005015,115.617981,-0.060000,0.020000,-0.280000,7.500000,7.500000
13.958000,1,-89.642822,0.804542,0.005015,115.533424,-0.070000,0.030000,-0.290000,7.500000,7.500000
14.006000,1,-89.642822,0.804542,0.005015,115.533424,-0.050000,0.030000,-0.280000,7.500000,7.500000
14.055000,1,-89.642822,0.804542,0.005015,115.279770,-0.060000,0.010000,-0.290000,7.500000,7.500000
14.104000,1,-89.642822,0.804542,0.005015,115.448875,-0.050000,0.010000,-0.280000,7.500000,7.500000
14.153000,1,-89.642822,0.804542,0.005015,115.113304,-0.070000,0.010000,-0.290000,7.500000,7.500000
14.203000,1,-89.642822,0.804542,0.005015,115.279770,-0.060000,0.020000,-0.270000,7.500000,7.500000
14.251000,1,-89.642822,0.804542,0.005015,115.028755,-0.070000,0.030000,-0.300000,7.500000,7.500000
14.298000,1,-89.642822,0.804542,0.005015,115.364319,-0.080000,0.010000,-0.290000,7.500000,7.500000
14.346000,1,-89.642822,0.804542,0.005015,115.617981,-0.060000,0.020000,-0.290000,7.500000,7.500000
14.395000,1,-89.642822,0.804542,0.005015,115.448875,-0.080000,0.020000,-0.320000,7.500000,7.500000
14.445000,1,-89.642822,0.804542,0.005015,115.787086,-0.050000,0.020000,-0.290000,7.500000,7.500000
14.494000,1,-89.642822,0.804542,0.005015,115.364319,-0.070000,0.020000,-0.310000,7.500000,7.500000
14.543000,1,-89.642822,0.804542,0.005015,115.279770,-0.070000,0.000000,-0.270000,7.500000,7.500000
14.591000,1,-89.642822,0.804542,0.005015,115.448875,-0.050000,0.030000,-0.320000,7.500000,7.500000
14.638000,1,-89.642822,0.804542,0.005015,115.028755,-0.070000,0.020000,-0.300000,7.500000,7.500000
14.686000,1,-89.642822,0.804542,0.005015,115.448875,-0.070000,0.020000,-0.310000,7.500000,7.500000
14.736000,1,-89.642822,0.804542,0.005015,115.028755,-0.060000,0.010000,-0.270000,7.500000,7.500000
14.785000,1,-89.642822,0.804542,0.005015,115.279770,-0.070000,0.020000,-0.290000,7.500000,7.500000
14.834000,1,-89.642822,0.804542,0.005015,115.364319,-0.080000,0.000000,-0.280000,7.500000,7.500000
14.883000,1,-89.642822,0.804542,0.005015,115.364319,-0.060000,0.010000,-0.260000,7.500000,7.500000
14.931000,1,-89.642822,0.804542,0.005015,115.279770,-0.060000,0.010000,-0.270000,7.500000,7.500000
14.978000,1,-89.642822,0.804542,0.005015,115.113304,-0.080000,0.030000,-0.290000,7.500000,7.500000
15.027000,1,-89.642822,0.804542,0.005015,114.690544,-0.070000,0.010000,-0.290000,7.500000,7.500000
15.076000,1,-89.642822,0.804542,0.005015,115.279770,-0.050000,0.040000,-0.280000,7.500000,7.500000
15.126000,1,-89.642822,0.804542,0.005015,115.448875,-0.070000,0.010000,-0.280000,7.500000,7.500000
15.175000,1,-89.642822,0.804542,0.005015,115.197861,-0.070000,0.010000,-0.300000,7.500000,7.500000
15.224000,1,-89.642822,0.804542,0.005015,115.364319,-0.080000,0.030000,-0.280000,7.500000,7.500000
15.271000,1,-89.642822,0.804542,0.005015,115.279770,-0.060000,0.000000,-0.300000,7.500000,7.500000
15.319000,1,-89.642822,0.804542,0.005015,115.364319,-0.040000,0.020000,-0.290000,7.500000,7.500000
15.367000,1,-89.642822,0.804542,0.005015,115.364319,-0.060000,0.020000,-0.280000,7.500000,7.500000
15.415000,1,-89.642822,0.804542,0.005015,115.197861,-0.070000,0.000000,-0.280000,7.500000,7.500000
15.462000,1,-89.642822,0.804542,0.005015,115.028755,-0.040000,0.010000,-0.250000,7.500000,7.500000
15.509000,1,-89.642822,0.804542,0.005015,114.859650,-0.050000,0.030000,-0.270000,7.500000,7.500000
15.558000,1,-89.642822,0.804542,0.005015,115.364319,-0.040000,0.000000,-0.270000,7.500000,7.500000
15.608000,1,-89.642822,0.804542,0.005015,115.448875,-0.060000,0.020000,-0.300000,7.500000,7.500000
15.657000,1,-89.642822,0.804542,0.005015,115.617981,-0.060000,0.020000,-0.270000,7.500000,7.500000
15.707000,1,-89.642822,0.804542,0.005015,115.279770,-0.060000,0.000000,-0.270000,7.500000,7.500000
15.756000,1,-89.642822,0.804542,0.005015,115.279770,-0.060000,0.020000,-0.280000,7.500000,7.500000
15.804000,1,-89.642822,0.804542,0.005015,115.533424,-0.070000,0.000000,-0.300000,7.500000,7.500000
15.851000,1,-89.642822,0.804542,0.005015,115.364319,-0.070000,0.000000,-0.290000,7.500000,7.500000
15.899000,1,-89.642822,0.804542,0.005015,115.113304,-0.080000,0.010000,-0.270000,7.500000,7.500000
15.949000,1,-89.642822,0.804542,0.005015,115.364319,-0.050000,0.010000,-0.300000,7.500000,7.500000
15.998000,1,-89.642822,0.804542,0.005015,115.617981,-0.050000,0.020000,-0.300000,7.500000,7.500000
16.047001,1,-89.642822,0.804542,0.005015,114.775093,-0.090000,0.010000,-0.290000,7.500000,7.500000
16.096001,1,-89.642822,0.804542,0.005015,114.859650,-0.080000,0.030000,-0.310000,7.500000,7.500000
16.143999,1,-89.642822,0.804542,0.005015,115.448875,-0.060000,0.020000,-0.280000,7.500000,7.500000
16.191000,1,-89.642822,0.804542,0.005015,115.364319,-0.080000,0.010000,-0.300000,7.500000,7.500000
16.240000,1,-89.642822,0.804542,0.005015,115.197861,-0.050000,0.020000,-0.300000,7.500000,7.500000
16.289000,1,-89.642822,0.804542,0.005015,115.028755,-0.070000,0.010000,-0.280000,7.500000,7.500000
16.337999,1,-89.642822,0.804542,0.005015,115.702530,-0.070000,0.010000,-0.270000,7.500000,7.500000
16.388000,1,-89.642822,0.804542,0.005015,114.859650,-0.070000,0.030000,-0.300000,7.500000,7.500000
16.437000,1,-89.642822,0.804542,0.005015,115.702530,-0.070000,0.020000,-0.270000,7.500000,7.500000
16.483999,1,-89.642822,0.804542,0.005015,108.885468,-0.060000,-0.010000,-0.260000,7.500000,7.500000
16.531000,1,-89.642822,0.804542,0.005015,100.054985,-0.060000,0.000000,-0.250000,7.500000,7.500000
16.580000,1,-89.642822,0.804542,0.005015,100.390556,-0.050000,0.030000,-0.240000,7.500000,7.500000
16.629999,1,-89.642822,0.804542,0.005015,100.306000,-0.020000,0.010000,-0.290000,7.500000,7.500000
16.679001,1,-89.642822,0.804542,0.005015,99.801331,-0.060000,-0.010000,-0.270000,7.500000,7.500000
16.728001,1,-89.642822,0.804542,0.005015,100.306000,-0.050000,0.030000,-0.260000,7.500000,7.500000
16.775999,1,-89.642822,0.804542,0.005015,100.054985,-0.050000,0.000000,-0.290000,7.500000,7.500000
16.823000,1,-89.642822,0.804542,0.005015,99.801331,-0.060000,0.020000,-0.290000,7.500000,7.500000
16.872000,1,-89.642822,0.804542,0.005015,99.970436,-0.030000,-0.020000,-0.250000,7.500000,7.500000
16.920000,1,-89.642822,0.804542,0.005015,99.801331,-0.060000,0.020000,-0.290000,7.500000,7.500000
16.966999,1,-89.642822,0.804542,0.005015,99.716774,-0.060000,0.060000,-0.290000,7.500000,7.500000
17.014000,1,-89.642822,0.804542,0.005015,99.634865,-0.060000,0.050000,-0.250000,7.500000,7.500000
17.062000,1,-89.642822,0.804542,0.005015,99.716774,-0.060000,0.000000,-0.240000,7.500000,7.500000
17.112000,1,-89.642822,0.804542,0.005015,99.801331,-0.070000,-0.010000,-0.270000,7.500000,7.500000
17.160999,1,-89.642822,0.804542,0.005015,99.801331,-0.060000,0.040000,-0.290000,7.500000,7.500000
17.209999,1,-89.642822,0.804542,0.005015,99.296654,-0.080000,0.010000,-0.270000,7.500000,7.500000
17.260000,1,-89.642822,0.804542,0.005015,99.885880,-0.050000,0.000000,-0.270000,7.500000,7.500000
17.308001,1,-89.642822,0.804542,0.005015,99.296654,-0.040000,0.000000,-0.310000,7.500000,7.500000
17.355000,1,-89.642822,0.804542,0.005015,99.801331,-0.050000,0.050000,-0.320000,7.500000,7.500000
17.403000,1,-89.642822,0.804542,0.005015,100.139542,-0.060000,0.020000,-0.310000,7.500000,7.500000
17.452000,1,-89.642822,0.804542,0.005015,99.801331,-0.060000,0.030000,-0.310000,7.500000,7.500000
17.502001,1,-89.642822,0.804542,0.005015,99.130188,-0.060000,0.010000,-0.290000,7.500000,7.500000
17.551001,1,-89.642822,0.804542,0.005015,100.054985,-0.070000,0.040000,-0.290000,7.500000,7.500000
17.600000,1,-89.642822,0.804542,0.005015,99.801331,-0.040000,0.020000,-0.300000,7.500000,7.500000
17.648001,1,-89.642822,0.804542,0.005015,99.550308,-0.060000,0.000000,-0.300000,7.500000,7.500000
17.695000,1,-89.642822,0.804542,0.005015,100.306000,-0.050000,0.030000,-0.300000,7.500000,7.500000
17.743000,1,-89.642822,0.804542,0.005015,99.801331,-0.060000,0.020000,-0.290000,7.500000,7.500000
17.792999,1,-89.642822,0.804542,0.005015,99.465759,-0.050000,0.020000,-0.280000,7.500000,7.500000
17.841999,1,-89.642822,0.804542,0.005015,100.054985,-0.080000,0.000000,-0.270000,7.500000,7.500000
17.891001,1,-89.642822,0.804542,0.005015,99.550308,-0.050000,0.030000,-0.300000,7.500000,7.500000
17.940001,1,-89.642822,0.804542,0.005015,99.045639,-0.050000,0.030000,-0.270000,7.500000,7.500000
17.988001,1,-89.642822,0.804542,0.005015,99.465759,-0.080000,0.020000,-0.280000,7.500000,7.500000
18.035000,1,-89.642822,0.804542,0.005015,99.465759,-0.060000,0.010000,-0.300000,7.500000,7.500000
18.084000,1,-89.642822,0.804542,0.005015,99.885880,-0.060000,0.020000,-0.280000,7.500000,7.500000
18.132999,1,-89.642822,0.804542,0.005015,99.465759,-0.080000,0.010000,-0.270000,7.500000,7.500000
18.183001,1,-89.642822,0.804542,0.005015,100.306000,-0.060000,0.000000,-0.280000,7.500000,7.500000
18.232000,1,-89.642822,0.804542,0.005015,100.139542,-0.080000,0.020000,-0.270000,7.500000,7.500000
18.280001,1,-89.642822,0.804542,0.005015,99.296654,-0.040000,0.020000,-0.270000,7.500000,7.500000
18.327000,1,-89.642822,0.804542,0.005015,99.296654,-0.070000,0.020000,-0.270000,7.500000,7.500000
18.375000,1,-89.642822,0.804542,0.005015,99.634865,-0.050000,0.010000,-0.280000,7.500000,7.500000
18.424000,1,-89.642822,0.804542,0.005015,100.054985,-0.050000,0.000000,-0.300000,7.500000,7.500000
18.471001,1,-89.642822,0.804542,0.005015,99.885880,-0.070000,0.020000,-0.300000,7.500000,7.500000
18.518000,1,-89.642822,0.804542,0.005015,100.306000,-0.070000,0.030000,-0.270000,7.500000,7.500000
18.566000,1,-89.642822,0.804542,0.005015,100.475105,-0.050000,0.010000,-0.290000,7.500000,7.500000
18.615000,1,-89.642822,0.804542,0.005015,115.197861,-0.060000,0.000000,-0.310000,7.500000,7.500000
18.665001,1,-89.642822,0.804542,0.005015,115.448875,-0.050000,0.030000,-0.310000,7.500000,7.500000
18.714001,1,-89.642822,0.804542,0.005015,115.868996,-0.050000,0.040000,-0.290000,7.500000,7.500000
18.763000,1,-89.642822,0.804542,0.005015,115.533424,-0.060000,0.010000,-0.290000,7.500000,7.500000
18.812000,1,-89.642822,0.804542,0.005015,115.279770,-0.060000,0.020000,-0.270000,7.500000,7.500000
18.858999,1,-89.642822,0.804542,0.005015,115.702530,-0.060000,0.020000,-0.310000,7.500000,7.500000
18.907000,1,-89.642822,0.804542,0.005015,115.533424,-0.070000,0.040000,-0.280000,7.500000,7.500000
18.955999,1,-89.642822,0.804542,0.005015,115.197861,-0.060000,0.020000,-0.290000,7.500000,7.500000
19.004999,1,-89.642822,0.804542,0.005015,115.617981,-0.050000,0.010000,-0.300000,7.500000,7.500000
19.054001,1,-89.642822,0.804542,0.005015,115.702530,-0.060000,0.040000,-0.300000,7.500000,7.500000
19.104000,1,-89.642822,0.804542,0.005015,115.448875,-0.060000,0.030000,-0.280000,7.500000,7.500000
19.152000,1,-89.642822,0.804542,0.005015,115.279770,-0.060000,-0.010000,-0.280000,7.500000,7.500000
19.198999,1,-89.642822,0.804542,0.005015,115.448875,-0.080000,0.020000,-0.300000,7.500000,7.500000
19.247000,1,-89.642822,0.804542,0.005015,115.364319,-0.050000,0.040000,-0.310000,7.500000,7.500000
19.296000,1,-89.642822,0.804542,0.005015,115.533424,-0.060000,0.010000,-0.250000,7.500000,7.500000
19.346001,1,-89.642822,0.804542,0.005015,115.448875,-0.060000,0.010000,-0.300000,7.500000,7.500000
19.395000,1,-89.642822,0.804542,0.005015,114.944199,-0.060000,0.000000,-0.280000,7.500000,7.500000
19.444000,1,-89.642822,0.804542,0.005015,115.787086,-0.070000,0.010000,-0.280000,7.500000,7.500000
19.492001,1,-89.642822,0.804542,0.005015,115.448875,-0.050000,0.010000,-0.280000,7.500000,7.500000
19.539000,1,-89.642822,0.804542,0.005015,115.787086,-0.060000,0.020000,-0.260000,7.500000,7.500000
19.587999,1,-89.642822,0.804542,0.005015,116.291756,-0.070000,0.030000,-0.260000,7.500000,7.500000
19.636999,1,-89.642822,0.804542,0.005015,100.221451,-0.060000,0.030000,-0.270000,7.500000,7.500000
19.686001,1,-89.642822,0.804542,0.005015,99.970436,-0.090000,0.020000,-0.260000,7.500000,7.500000
19.736000,1,-89.642822,0.804542,0.005015,99.716774,0.000000,0.060000,-0.240000,7.500000,7.500000
19.785000,1,-89.642822,0.804542,0.005015,99.550308,-0.090000,-0.060000,-0.310000,7.500000,7.500000
19.832001,1,-89.642822,0.804542,0.005015,99.296654,-0.040000,0.000000,-0.250000,7.500000,7.500000
19.879000,1,-89.642822,0.804542,0.005015,99.296654,-0.070000,0.040000,-0.310000,7.500000,7.500000
19.927999,1,-89.642822,0.804542,0.005015,99.634865,-0.050000,0.040000,-0.280000,7.500000,7.500000
19.975000,1,-89.642822,0.804542,0.005015,99.550308,-0.060000,0.020000,-0.280000,7.500000,7.500000
20.021999,1,-89.642822,0.804542,0.005015,99.296654,-0.040000,0.000000,-0.290000,7.500000,7.500000
20.070000,1,-89.642822,0.804542,0.005015,99.465759,-0.050000,0.030000,-0.270000,7.500000,7.500000
20.118999,1,-89.642822,0.804542,0.005015,99.550308,-0.060000,0.040000,-0.290000,7.500000,7.500000
20.167999,1,-89.642822,0.804542,0.005015,99.801331,-0.060000,0.000000,-0.300000,7.500000,7.500000
20.218000,1,-89.642822,0.804542,0.005015,100.221451,-0.060000,0.010000,-0.280000,7.500000,7.500000
20.267000,1,-89.642822,0.804542,0.005015,99.716774,-0.040000,0.040000,-0.300000,7.500000,7.500000
20.316000,1,-89.642822,0.804542,0.005015,99.465759,-0.090000,0.000000,-0.270000,7.500000,7.500000
20.364000,1,-89.642822,0.804542,0.005015,100.054985,-0.060000,0.020000,-0.300000,7.500000,7.500000
20.410999,1,-89.642822,0.804542,0.005015,99.801331,-0.050000,0.030000,-0.280000,7.500000,7.500000
20.459999,1,-89.642822,0.804542,0.005015,99.801331,-0.070000,0.030000,-0.310000,7.500000,7.500000
20.509001,1,-89.642822,0.804542,0.005015,99.381203,-0.060000,0.010000,-0.280000,7.500000,7.500000
20.558001,1,-89.642822,0.804542,0.005015,99.550308,-0.070000,0.010000,-0.300000,7.500000,7.500000
20.608000,1,-89.642822,0.804542,0.005015,99.214745,-0.060000,0.000000,-0.290000,7.500000,7.500000
20.657000,1,-89.642822,0.804542,0.005015,99.550308,-0.060000,0.010000,-0.300000,7.500000,7.500000
20.704000,1,-89.642822,0.804542,0.005015,99.634865,-0.030000,-0.040000,-0.350000,7.500000,7.500000
20.752001,1,-89.642822,0.804542,0.005015,99.381203,-0.070000,-0.020000,-0.290000,7.500000,7.500000
20.799999,1,-89.642822,0.804542,0.005015,99.465759,-0.050000,0.040000,-0.270000,7.500000,7.500000
20.850000,1,-89.642822,0.804542,0.005015,98.794624,-0.030000,0.060000,-0.280000,7.500000,7.500000
20.899000,1,-89.642822,0.804542,0.005015,99.634865,-0.090000,0.000000,-0.290000,7.500000,7.500000
20.948000,1,-89.642822,0.804542,0.005015,99.381203,-0.030000,0.000000,-0.310000,7.500000,7.500000
20.997000,1,-89.642822,0.804542,0.005015,99.214745,-0.050000,0.040000,-0.290000,7.500000,7.500000
21.044001,1,-89.642822,0.804542,0.005015,100.054985,-0.040000,0.040000,-0.270000,7.500000,7.500000
21.091999,1,-89.642822,0.804542,0.005015,99.214745,-0.070000,0.010000,-0.300000,7.500000,7.500000
21.141001,1,-89.642822,0.804542,0.005015,99.885880,-0.080000,-0.020000,-0.260000,7.500000,7.500000
21.190001,1,-89.642822,0.804542,0.005015,99.885880,-0.060000,0.030000,-0.270000,7.500000,7.500000
21.239000,1,-89.642822,0.804542,0.005015,100.221451,-0.060000,0.040000,-0.270000,7.500000,7.500000
21.289000,1,-89.642822,0.804542,0.005015,99.381203,-0.040000,0.000000,-0.270000,7.500000,7.500000
21.337000,1,-89.642822,0.804542,0.005015,99.550308,-0.080000,0.000000,-0.300000,7.500000,7.500000
21.384001,1,-89.642822,0.804542,0.005015,99.801331,-0.060000,0.060000,-0.310000,7.500000,7.500000
21.431999,1,-89.642822,0.804542,0.005015,99.465759,-0.070000,0.050000,-0.310000,7.500000,7.500000
21.479000,1,-89.642822,0.804542,0.005015,99.296654,-0.070000,0.010000,-0.260000,7.500000,7.500000
21.527000,1,-89.642822,0.804542,0.005015,99.296654,-0.110000,-0.360000,-0.010000,7.500000,7.500000
21.573999,1,-89.634232,0.811324,0.005180,99.550308,-0.080000,0.040000,-0.420000,7.500000,7.500000
21.622000,1,-89.634232,0.811324,0.005180,99.296654,-0.070000,0.080000,-0.360000,7.500000,7.500000
21.672001,1,-89.634232,0.811324,0.005180,99.465759,0.000000,0.000000,-0.320000,7.500000,7.500000
21.721001,1,-89.634232,0.811324,0.005180,99.381203,-0.090000,0.020000,-0.260000,7.500000,7.500000
21.771000,1,-89.634232,0.811324,0.005180,99.716774,-0.040000,0.040000,-0.300000,7.500000,7.500000
21.820000,1,-89.634232,0.811324,0.005180,99.550308,-0.070000,0.030000,-0.280000,7.500000,7.500000
21.868000,1,-89.634232,0.811324,0.005180,99.716774,-0.040000,0.000000,-0.290000,7.500000,7.500000
21.915001,1,-89.634232,0.811324,0.005180,99.214745,-0.070000,0.020000,-0.300000,7.500000,7.500000
21.962999,1,-89.634232,0.811324,0.005180,99.885880,-0.050000,0.040000,-0.280000,7.500000,7.500000
22.013000,1,-90.127930,0.811565,-0.001812,99.465759,-0.030000,-0.010000,-0.130000,7.500000,7.500000
22.062000,1,-89.634232,0.811324,0.005180,99.885880,-0.100000,0.040000,-0.270000,7.500000,7.500000
22.111000,1,-89.634232,0.811324,0.005180,99.550308,-0.040000,0.060000,-0.440000,7.500000,7.500000
22.160000,1,-89.634232,0.811324,0.005180,99.130188,-0.030000,0.010000,-0.300000,7.500000,7.500000
22.208000,1,-89.634232,0.811324,0.005180,99.296654,-0.080000,0.050000,-0.330000,7.500000,7.500000
22.254999,1,-89.634232,0.811324,0.005180,99.465759,-0.060000,0.000000,-0.280000,7.500000,7.500000
22.304001,1,-89.634232,0.811324,0.005180,99.716774,-0.090000,0.030000,-0.300000,7.500000,7.500000
22.353001,1,-89.634232,0.811324,0.005180,99.214745,-0.060000,0.020000,-0.290000,7.500000,7.500000
22.402000,1,-89.634232,0.811324,0.005180,99.296654,-0.050000,0.030000,-0.280000,7.500000,7.500000
22.452000,1,-89.634232,0.811324,0.005180,98.961082,-0.090000,-0.020000,-0.300000,7.500000,7.500000
22.500999,1,-89.634232,0.811324,0.005180,99.801331,-0.050000,0.000000,-0.340000,7.500000,7.500000
22.548000,1,-89.634232,0.811324,0.005180,99.465759,-0.040000,0.030000,-0.300000,7.500000,7.500000
22.594999,1,-89.634232,0.811324,0.005180,99.296654,-0.070000,0.060000,-0.280000,7.500000,7.500000
22.643999,1,-89.634232,0.811324,0.005180,99.214745,-0.070000,0.000000,-0.310000,7.500000,7.500000
22.694000,1,-89.634232,0.811324,0.005180,99.550308,-0.080000,0.000000,-0.300000,7.500000,7.500000
22.743000,1,-89.634232,0.811324,0.005180,99.634865,-0.060000,0.030000,-0.280000,7.500000,7.500000
22.792000,1,-89.634232,0.811324,0.005180,99.801331,-0.060000,0.030000,-0.280000,7.500000,7.500000
22.840000,1,-89.634232,0.811324,0.005180,99.214745,-0.070000,-0.020000,-0.280000,7.500000,7.500000
22.886999,1,-89.634232,0.811324,0.005180,99.296654,-0.060000,0.000000,-0.270000,7.500000,7.500000
22.936001,1,-89.634232,0.811324,0.005180,98.794624,-0.060000,0.030000,-0.270000,7.500000,7.500000
22.983999,1,-89.634232,0.811324,0.005180,99.801331,-0.070000,0.030000,-0.300000,7.500000,7.500000
23.031000,1,-89.634232,0.811324,0.005180,99.970436,-0.070000,0.030000,-0.290000,7.500000,7.500000
23.077999,1,-89.634232,0.811324,0.005180,99.634865,-0.050000,-0.020000,-0.220000,7.500000,7.500000
23.125999,1,-89.634232,0.811324,0.005180,100.139542,-0.110000,0.000000,-0.330000,7.500000,7.500000
23.176001,1,-89.634232,0.811324,0.005180,99.634865,-0.070000,0.040000,-0.280000,7.500000,7.500000
23.225000,1,-89.634232,0.811324,0.005180,99.045639,-0.070000,0.050000,-0.280000,7.500000,7.500000
23.274000,1,-89.634232,0.811324,0.005180,99.550308,-0.060000,0.020000,-0.290000,7.500000,7.500000
23.323000,1,-89.634232,0.811324,0.005180,99.130188,-0.070000,0.010000,-0.300000,7.500000,7.500000
23.371000,1,-89.634232,0.811324,0.005180,99.381203,-0.050000,0.030000,-0.290000,7.500000,7.500000
23.417999,1,-89.634232,0.811324,0.005180,99.465759,-0.080000,0.060000,-0.280000,7.500000,7.500000
23.466999,1,-89.634232,0.811324,0.005180,99.550308,-0.070000,0.000000,-0.230000,7.500000,7.500000
23.516001,1,-89.634232,0.811324,0.005180,99.214745,0.040000,0.100000,-0.260000,7.500000,7.500000
23.565001,1,-89.634232,0.811324,0.005180,98.876534,-0.110000,0.050000,-0.270000,7.500000,7.500000
23.615000,1,-89.634232,0.811324,0.005180,99.550308,0.000000,0.010000,-0.290000,7.500000,7.500000
23.664000,1,-89.634232,0.811324,0.005180,99.716774,-0.070000,0.030000,-0.300000,7.500000,7.500000
23.711000,1,-89.634232,0.811324,0.005180,99.465759,-0.050000,0.010000,-0.300000,7.500000,7.500000
23.759001,1,-89.634232,0.811324,0.005180,99.634865,-0.090000,0.020000,-0.310000,7.500000,7.500000
23.806999,1,-89.634232,0.811324,0.005180,99.885880,-0.050000,0.050000,-0.280000,7.500000,7.500000
23.857000,1,-89.634232,0.811324,0.005180,99.465759,-0.080000,0.030000,-0.290000,7.500000,7.500000
23.906000,1,-89.634232,0.811324,0.005180,99.716774,-0.070000,0.000000,-0.300000,7.500000,7.500000
23.955000,1,-89.634232,0.811324,0.005180,99.381203,-0.030000,0.020000,-0.280000,7.500000,7.500000
24.004000,1,-89.634232,0.811324,0.005180,99.801331,-0.140000,0.050000,-0.270000,7.500000,7.500000
24.051001,1,-89.634232,0.811324,0.005180,99.465759,-0.080000,0.020000,-0.300000,7.500000,7.500000
24.099001,1,-89.634232,0.811324,0.005180,99.296654,-0.040000,0.000000,-0.280000,7.500000,7.500000
24.148001,1,-89.634232,0.811324,0.005180,99.296654,-0.120000,0.030000,-0.270000,7.500000,7.500000
24.197001,1,-89.634232,0.811324,0.005180,99.716774,-0.030000,0.040000,-0.280000,7.500000,7.500000
24.247000,1,-89.634232,0.811324,0.005180,99.716774,-0.070000,0.010000,-0.270000,7.500000,7.500000
24.296000,1,-89.634232,0.811324,0.005180,99.465759,-0.050000,0.030000,-0.260000,7.500000,7.500000
24.344000,1,-89.634232,0.811324,0.005180,99.465759,-0.110000,0.020000,-0.290000,7.500000,7.500000
24.391001,1,-89.634232,0.811324,0.005180,99.550308,-0.040000,0.030000,-0.280000,7.500000,7.500000
24.438999,1,-89.634232,0.811324,0.005180,99.885880,-0.100000,0.010000,-0.300000,7.500000,7.500000
24.487000,1,-89.634232,0.811324,0.005180,99.465759,-0.060000,0.020000,-0.290000,7.500000,7.500000
24.534000,1,-89.634232,0.811324,0.005180,99.296654,-0.030000,0.050000,-0.270000,7.500000,7.500000
24.580999,1,-89.634232,0.811324,0.005180,99.716774,-0.110000,0.040000,-0.290000,7.500000,7.500000
24.629999,1,-89.634232,0.811324,0.005180,99.550308,-0.060000,0.000000,-0.260000,7.500000,7.500000
24.679001,1,-89.634232,0.811324,0.005180,99.381203,-0.050000,0.020000,-0.280000,7.500000,7.500000
24.729000,1,-89.634232,0.811324,0.005180,99.970436,-0.060000,0.030000,-0.300000,7.500000,7.500000
24.778000,1,-89.634232,0.811324,0.005180,99.465759,-0.050000,0.000000,-0.290000,7.500000,7.500000
24.827000,1,-89.634232,0.811324,0.005180,99.885880,-0.060000,0.030000,-0.300000,7.500000,7.500000
24.875000,1,-89.634232,0.811324,0.005180,99.801331,-0.070000,0.000000,-0.270000,7.500000,7.500000
24.922001,1,-89.634232,0.811324,0.005180,99.634865,-0.060000,0.000000,-0.300000,7.500000,7.500000
24.971001,1,-89.634232,0.811324,0.005180,99.214745,-0.040000,0.010000,-0.310000,7.500000,7.500000
25.020000,1,-89.634232,0.811324,0.005180,99.716774,-0.080000,0.030000,-0.300000,7.500000,7.500000
25.069000,1,-89.634232,0.811324,0.005180,99.885880,-0.030000,0.010000,-0.310000,7.500000,7.500000
25.118999,1,-89.634232,0.811324,0.005180,99.465759,-0.050000,0.020000,-0.300000,7.500000,7.500000
25.167999,1,-89.634232,0.811324,0.005180,100.054985,-0.060000,0.040000,-0.290000,7.500000,7.500000
25.215000,1,-89.634232,0.811324,0.005180,99.716774,-0.070000,0.010000,-0.310000,7.500000,7.500000
25.261999,1,-89.634232,0.811324,0.005180,99.885880,-0.080000,0.040000,-0.290000,7.500000,7.500000
25.311001,1,-89.634232,0.811324,0.005180,100.054985,-0.060000,0.010000,-0.310000,7.500000,7.500000
25.360001,1,-89.634232,0.811324,0.005180,99.970436,-0.070000,0.010000,-0.280000,7.500000,7.500000
25.410000,1,-89.634232,0.811324,0.005180,99.716774,-0.060000,0.000000,-0.300000,7.500000,7.500000
25.459000,1,-89.634232,0.811324,0.005180,99.465759,-0.090000,0.010000,-0.280000,7.500000,7.500000
25.507999,1,-89.634232,0.811324,0.005180,99.885880,-0.040000,0.030000,-0.250000,7.500000,7.500000
25.555000,1,-89.634232,0.811324,0.005180,99.716774,-0.070000,0.030000,-0.280000,7.500000,7.500000
25.603001,1,-89.634232,0.811324,0.005180,99.716774,-0.050000,0.020000,-0.260000,7.500000,7.500000
25.652000,1,-89.634232,0.811324,0.005180,99.465759,-0.040000,0.020000,-0.300000,7.500000,7.500000
25.701000,1,-89.634232,0.811324,0.005180,99.970436,-0.080000,0.030000,-0.280000,7.500000,7.500000
25.750000,1,-89.634232,0.811324,0.005180,99.634865,-0.070000,0.020000,-0.290000,7.500000,7.500000
25.799999,1,-89.634232,0.811324,0.005180,99.465759,-0.060000,0.000000,-0.280000,7.500000,7.500000
25.848000,1,-89.634232,0.811324,0.005180,99.634865,-0.060000,0.040000,-0.280000,7.500000,7.500000
25.895000,1,-89.634232,0.811324,0.005180,99.296654,-0.070000,0.030000,-0.280000,7.500000,7.500000
25.943001,1,-89.634232,0.811324,0.005180,98.794624,-0.050000,0.010000,-0.250000,7.500000,7.500000
25.990999,1,-89.634232,0.811324,0.005180,99.550308,-0.060000,0.020000,-0.310000,7.500000,7.500000
26.038000,1,-89.634232,0.811324,0.005180,99.214745,-0.050000,0.020000,-0.290000,7.500000,7.500000
26.084999,1,-89.634232,0.811324,0.005180,99.716774,-0.060000,0.040000,-0.290000,7.500000,7.500000
26.134001,1,-89.634232,0.811324,0.005180,99.634865,-0.070000,0.010000,-0.290000,7.500000,7.500000
26.183001,1,-89.634232,0.811324,0.005180,98.961082,-0.050000,0.030000,-0.310000,7.500000,7.500000
26.232000,1,-89.634232,0.811324,0.005180,99.465759,-0.060000,0.030000,-0.300000,7.500000,7.500000
26.282000,1,-89.634232,0.811324,0.005180,99.550308,-0.060000,0.020000,-0.290000,7.500000,7.500000
26.330999,1,-89.634232,0.811324,0.005180,99.716774,-0.070000,0.000000,-0.290000,7.500000,7.500000
26.379000,1,-89.634232,0.811324,0.005180,99.465759,-0.070000,0.030000,-0.310000,7.500000,7.500000
26.426001,1,-89.634232,0.811324,0.005180,98.876534,-0.080000,0.020000,-0.310000,7.500000,7.500000
26.474001,1,-89.634232,0.811324,0.005180,99.801331,-0.050000,0.040000,-0.290000,7.500000,7.500000
26.524000,1,-89.634232,0.811324,0.005180,99.634865,-0.060000,0.000000,-0.290000,7.500000,7.500000
26.573000,1,-89.634232,0.811324,0.005180,99.296654,-0.080000,0.000000,-0.300000,7.500000,7.500000
26.622000,1,-89.634232,0.811324,0.005180,99.381203,-0.060000,0.030000,-0.300000,7.500000,7.500000
26.671000,1,-89.634232,0.811324,0.005180,99.381203,-0.060000,0.020000,-0.270000,7.500000,7.500000
26.719000,1,-89.634232,0.811324,0.005180,99.550308,-0.070000,0.010000,-0.270000,7.500000,7.500000
26.766001,1,-89.634232,0.811324,0.005180,99.296654,-0.060000,0.010000,-0.300000,7.500000,7.500000
26.815001,1,-89.634232,0.811324,0.005180,99.801331,-0.060000,0.040000,-0.290000,7.500000,7.500000
26.864000,1,-89.634232,0.811324,0.005180,99.801331,-0.060000,0.000000,-0.250000,7.500000,7.500000
26.914000,1,-89.634232,0.811324,0.005180,99.045639,-0.050000,0.010000,-0.300000,7.500000,7.500000
26.962999,1,-89.634232,0.811324,0.005180,99.970436,-0.060000,0.030000,-0.280000,7.500000,7.500000
27.011999,1,-89.634232,0.811324,0.005180,99.885880,-0.060000,0.020000,-0.300000,7.500000,7.500000
27.059000,1,-89.634232,0.811324,0.005180,99.801331,-0.050000,0.000000,-0.280000,7.500000,7.500000
27.106001,1,-89.634232,0.811324,0.005180,99.381203,-0.060000,0.010000,-0.280000,7.500000,7.500000
27.155001,1,-89.634232,0.811324,0.005180,99.214745,-0.070000,0.020000,-0.280000,7.500000,7.500000
27.205000,1,-89.634232,0.811324,0.005180,99.885880,-0.060000,0.030000,-0.290000,7.500000,7.500000
27.254000,1,-89.634232,0.811324,0.005180,99.801331,-0.060000,0.010000,-0.270000,7.500000,7.500000
27.304001,1,-89.634232,0.811324,0.005180,99.381203,-0.050000,0.010000,-0.270000,7.500000,7.500000
27.351999,1,-89.634232,0.811324,0.005180,99.381203,-0.070000,0.030000,-0.260000,7.500000,7.500000
27.399000,1,-89.634232,0.811324,0.005180,99.634865,-0.090000,0.020000,-0.260000,7.500000,7.500000
27.447001,1,-89.634232,0.811324,0.005180,99.550308,-0.060000,0.020000,-0.270000,7.500000,7.500000
27.495001,1,-89.634232,0.811324,0.005180,99.550308,-0.070000,0.000000,-0.280000,7.500000,7.500000
27.542000,1,-89.634232,0.811324,0.005180,99.465759,-0.070000,0.030000,-0.290000,7.500000,7.500000
27.589001,1,-89.634232,0.811324,0.005180,99.465759,-0.050000,0.030000,-0.290000,7.500000,7.500000
27.638000,1,-89.634232,0.811324,0.005180,99.130188,-0.050000,0.020000,-0.280000,7.500000,7.500000
27.687000,1,-89.634232,0.811324,0.005180,99.465759,-0.050000,0.020000,-0.310000,7.500000,7.500000
27.736000,1,-89.634232,0.811324,0.005180,99.465759,-0.070000,0.020000,-0.290000,7.500000,7.500000
27.785999,1,-89.634232,0.811324,0.005180,99.130188,-0.070000,0.030000,-0.260000,7.500000,7.500000
27.834999,1,-89.634232,0.811324,0.005180,99.465759,-0.060000,0.020000,-0.280000,7.500000,7.500000
27.882999,1,-89.634232,0.811324,0.005180,99.214745,-0.080000,0.010000,-0.300000,7.500000,7.500000
27.930000,1,-89.634232,0.811324,0.005180,99.381203,-0.060000,0.040000,-0.290000,7.500000,7.500000
27.978001,1,-89.634232,0.811324,0.005180,99.465759,-0.060000,0.030000,-0.300000,7.500000,7.500000
28.027000,1,-89.634232,0.811324,0.005180,99.885880,-0.080000,0.000000,-0.310000,7.500000,7.500000
28.077000,1,-89.634232,0.811324,0.005180,99.550308,0.010000,0.020000,-0.340000,7.500000,7.500000
28.125999,1,-89.634232,0.811324,0.005180,99.130188,-0.100000,0.060000,-0.330000,7.500000,7.500000
28.174999,1,-89.634232,0.811324,0.005180,99.045639,-0.070000,0.020000,-0.320000,7.500000,7.500000
28.223000,1,-89.634232,0.811324,0.005180,99.130188,-0.070000,0.010000,-0.310000,7.500000,7.500000
28.270000,1,-89.634232,0.811324,0.005180,99.214745,-0.030000,0.020000,-0.300000,7.500000,7.500000
28.319000,1,-89.634232,0.811324,0.005180,99.381203,-0.080000,0.030000,-0.310000,7.500000,7.500000
28.368000,1,-89.634232,0.811324,0.005180,98.876534,-0.070000,0.010000,-0.280000,7.500000,7.500000
28.417000,1,-89.634232,0.811324,0.005180,99.381203,-0.030000,0.020000,-0.270000,7.500000,7.500000
28.466999,1,-89.634232,0.811324,0.005180,99.381203,-0.090000,0.040000,-0.290000,7.500000,7.500000
28.516001,1,-89.634232,0.811324,0.005180,98.961082,0.000000,0.050000,-0.280000,7.500000,7.500000
28.563000,1,-89.634232,0.811324,0.005180,98.961082,-0.090000,0.000000,-0.300000,7.500000,7.500000
28.610001,1,-89.634232,0.811324,0.005180,100.054985,-0.060000,0.010000,-0.260000,7.500000,7.500000
28.659000,1,-89.634232,0.811324,0.005180,99.550308,-0.040000,0.060000,-0.290000,7.500000,7.500000
28.709000,1,-89.634232,0.811324,0.005180,99.381203,-0.080000,0.030000,-0.280000,7.500000,7.500000
28.757999,1,-89.634232,0.811324,0.005180,99.130188,-0.070000,0.020000,-0.280000,7.500000,7.500000
28.806999,1,-89.634232,0.811324,0.005180,98.456413,-0.050000,0.000000,-0.290000,7.500000,7.500000
28.856001,1,-89.634232,0.811324,0.005180,98.961082,-0.080000,0.060000,-0.310000,7.500000,7.500000
28.903000,1,-89.634232,0.811324,0.005180,99.130188,-0.080000,0.050000,-0.260000,7.500000,7.500000
28.951000,1,-89.634232,0.811324,0.005180,99.381203,-0.040000,-0.020000,-0.140000,7.500000,7.500000
29.000000,1,-89.634232,0.811324,0.005180,99.550308,0.000000,0.020000,-0.050000,7.500000,7.500000
29.047001,1,-89.634232,0.811324,0.005180,99.716774,-0.130000,0.030000,-0.170000,7.500000,7.500000
29.094000,1,-89.634232,0.811324,0.005180,99.381203,0.000000,0.020000,-0.340000,7.500000,7.500000
29.142000,1,-89.634232,0.811324,0.005180,99.214745,-0.110000,0.050000,-0.250000,7.500000,7.500000
29.191000,1,-89.634232,0.811324,0.005180,99.465759,-0.050000,0.000000,-0.220000,7.500000,7.500000
29.240000,1,-89.634232,0.811324,0.005180,99.550308,-0.050000,0.020000,-0.290000,7.500000,7.500000
29.290001,1,-89.634232,0.811324,0.005180,99.296654,-0.070000,0.050000,-0.300000,7.500000,7.500000
29.339001,1,-89.634232,0.811324,0.005180,99.381203,-0.080000,0.050000,-0.290000,7.500000,7.500000
29.388000,1,-89.634232,0.811324,0.005180,99.465759,-0.110000,0.000000,-0.300000,7.500000,7.500000
29.436001,1,-89.634232,0.811324,0.005180,99.214745,-0.050000,0.010000,-0.270000,7.500000,7.500000
29.483000,1,-89.634232,0.811324,0.005180,99.465759,-0.080000,0.050000,-0.310000,7.500000,7.500000
29.531000,1,-89.634232,0.811324,0.005180,99.296654,-0.040000,0.030000,-0.280000,7.500000,7.500000
29.580999,1,-89.634232,0.811324,0.005180,99.634865,-0.070000,0.020000,-0.310000,7.500000,7.500000
29.629999,1,-89.634232,0.811324,0.005180,99.381203,-0.040000,0.000000,-0.320000,7.500000,7.500000
29.680000,1,-89.634232,0.811324,0.005180,99.885880,-0.110000,-0.320000,0.000000,7.500000,7.500000
29.728001,1,-89.634232,0.811324,0.005180,99.634865,-0.060000,0.020000,-0.430000,7.500000,7.500000
29.775000,1,-89.634232,0.811324,0.005180,99.296654,-0.060000,0.050000,-0.350000,7.500000,7.500000
29.823000,1,-89.634232,0.811324,0.005180,99.801331,-0.040000,0.030000,-0.260000,7.500000,7.500000
29.872000,1,-89.634232,0.811324,0.005180,99.634865,-0.060000,0.060000,-0.260000,7.500000,7.500000
29.921000,1,-89.634232,0.811324,0.005180,99.550308,-0.040000,0.020000,-0.270000,7.500000,7.500000
29.971001,1,-89.634232,0.811324,0.005180,99.381203,-0.070000,0.000000,-0.310000,7.500000,7.500000
30.020000,1,-89.634232,0.811324,0.005180,99.716774,-0.070000,0.010000,-0.310000,7.500000,7.500000
30.068001,1,-89.634232,0.811324,0.005180,99.634865,-0.060000,0.050000,-0.290000,7.500000,7.500000
30.115000,1,-89.634232,0.811324,0.005180,99.296654,0.000000,0.020000,-0.280000,7.500000,7.500000
32.148998,1,-90.140800,0.804542,-0.001978,99.045639,-0.050000,-0.010000,-0.260000,7.500000,7.500000
34.191002,1,-90.140800,0.804542,-0.001978,99.214745,-0.090000,0.050000,-0.330000,7.500000,7.500000
36.227001,1,-90.140800,0.804542,-0.001978,100.054985,-0.080000,0.030000,-0.280000,7.500000,7.500000
38.262001,1,-90.140800,0.804542,-0.001978,99.381203,-0.070000,0.030000,-0.310000,7.500000,7.500000
40.287998,0,-90.140800,0.804542,-0.001978,99.716774,-0.060000,0.030000,-0.280000,0.000000,0.000000
42.291000,0,-90.140800,0.804542,-0.001978,99.296654,-0.050000,0.060000,-0.270000,0.000000,0.000000
44.296001,0,-90.140800,0.804542,-0.001978,115.868996,-0.080000,0.010000,-0.270000,0.000000,0.000000
46.299999,0,-90.140800,0.804542,-0.001978,115.364319,-0.060000,0.010000,-0.280000,0.000000,0.000000
5.305000,0,-71.019104,0.473126,0.153957,115.953545,0.000000,-0.040000,-0.270000,0.000000,39.139999
7.309000,0,-71.019104,0.473126,0.153957,115.617981,-0.020000,-0.010000,-0.280000,0.000000,0.000000
9.313000,0,-71.019104,0.473126,0.153957,115.953545,0.000000,-0.030000,-0.270000,0.000000,0.000000
11.317000,0,-71.019104,0.473126,0.153957,117.301109,0.000000,0.000000,-0.310000,0.000000,0.000000
13.320000,0,-71.019104,0.473126,0.153957,116.291756,0.000000,-0.030000,-0.290000,0.000000,0.000000
15.320000,0,143.412292,3.575003,-2.871939,115.533424,-0.710000,-0.660000,1.080000,0.000000,0.000000
0.046000,1,157.242065,6.119267,-5.645992,113.512085,1.190000,1.380000,6.060000,7.500000,-7.500000
0.093000,1,165.926453,5.815812,-5.642416,113.512085,0.290000,-1.300000,0.850000,7.500000,-7.500000
0.140000,1,-177.521744,5.267451,-5.262705,113.512085,0.760000,-1.260000,-0.940000,7.500000,7.500000
0.187000,1,-170.816635,5.110404,-5.045229,113.934853,0.410000,-1.460000,-1.080000,7.500000,7.500000
0.234000,1,-172.750763,5.089851,-5.049260,115.279770,0.620000,-0.090000,-0.830000,7.500000,7.500000
0.281000,1,-170.092514,4.675626,-4.606104,116.038101,0.030000,-0.280000,0.000000,7.500000,7.500000
0.328000,1,-165.712906,4.452279,-4.315212,115.953545,0.220000,0.360000,-0.170000,7.500000,7.500000
0.376000,1,-164.294693,4.489691,-4.322599,116.542778,0.020000,0.030000,-0.450000,7.500000,7.500000
0.426000,1,-160.240372,4.292677,-4.040673,117.301109,0.330000,-0.210000,-0.300000,7.500000,7.500000
0.475000,1,-156.209534,4.251279,-3.891300,117.974884,0.500000,-0.230000,-0.160000,7.500000,7.500000
0.524000,1,-148.574799,4.550833,-3.885592,118.648666,0.100000,-0.050000,-0.310000,7.500000,7.500000
0.574000,1,-144.768646,4.488775,-3.669064,118.733223,0.570000,0.090000,-0.090000,7.500000,7.500000
0.623000,1,-139.851334,4.555737,-3.485437,118.817772,0.620000,-0.190000,-0.550000,7.500000,7.500000
0.670000,1,-136.976929,4.693481,-3.434887,118.395012,1.470000,0.000000,-0.970000,7.500000,7.500000
0.717000,1,-135.032150,4.655094,-3.297035,119.068787,1.200000,-1.130000,-1.190000,7.500000,7.500000
0.766000,1,-128.595383,4.049994,-2.529090,120.585457,1.000000,-1.000000,-0.730000,7.500000,7.500000
0.816000,1,-103.376869,3.544200,-0.820958,121.597443,0.310000,-0.470000,-1.100000,7.500000,7.500000
0.865000,1,-101.511055,3.300492,-0.659352,122.271225,-0.220000,0.580000,-0.480000,7.500000,7.500000
0.914000,1,-98.206375,2.132031,-0.304465,122.945007,-1.010000,0.130000,-0.060000,7.500000,7.500000
0.963000,1,-88.726578,1.672223,0.037172,124.292564,-0.540000,1.350000,0.150000,7.500000,7.500000
1.010000,1,-64.512169,2.334142,1.004843,125.389107,-0.710000,-0.080000,0.300000,7.500000,7.500000
1.058000,1,-65.385513,2.894215,1.206302,127.156792,-0.890000,0.920000,0.070000,7.500000,7.500000
1.107000,1,-72.304695,3.893801,1.185187,128.253326,-0.280000,1.250000,-0.710000,7.500000,7.500000
1.156000,1,-68.758797,4.655179,1.689805,126.990326,-0.270000,-0.710000,0.540000,7.500000,7.500000
1.206000,1,-76.401451,4.526623,1.066401,126.062889,-1.310000,1.040000,0.280000,7.500000,7.500000
1.255000,1,-98.476852,5.141366,-0.759891,122.860451,-0.820000,0.820000,0.700000,7.500000,7.500000
1.304000,1,-159.451981,4.732345,-4.432510,119.406998,-0.150000,0.270000,-0.090000,7.500000,7.500000
1.351000,1,177.907227,6.205166,-6.200994,119.491554,0.330000,-0.210000,-1.380000,7.500000,-7.500000
1.399000,1,177.287689,6.166755,-6.159976,118.564117,-1.150000,3.710000,-0.210000,7.500000,-7.500000
1.446000,1,175.883926,5.956114,-5.941025,118.648666,1.520000,-0.550000,-0.320000,7.500000,-7.500000
1.493000,1,166.064285,5.821606,-5.651323,118.479561,-1.520000,-1.220000,-0.120000,7.500000,-7.500000
1.540000,1,167.232071,4.685461,-4.570051,120.500900,-0.750000,-0.910000,-1.130000,7.500000,-7.500000
1.587000,1,164.670944,2.563764,-2.472714,122.102119,0.250000,0.010000,-0.210000,7.500000,-7.500000
1.634000,1,152.077789,1.804068,-1.594212,123.196022,-1.000000,0.700000,-3.400000,7.500000,-7.500000
1.681000,1,176.584595,4.483973,-4.476094,126.905777,0.680000,-1.500000,-3.900000,7.500000,-7.500000
1.729000,1,-151.797882,1.066979,-0.940270,126.062889,0.090000,-0.010000,0.430000,7.500000,7.500000
1.779000,1,-133.639572,0.855923,-0.590737,126.736671,-0.190000,-0.130000,-0.280000,7.500000,7.500000
1.828000,1,-122.150520,0.752775,-0.400672,122.271225,-0.120000,0.110000,-0.220000,7.500000,7.500000
1.877000,1,-112.045532,0.710243,-0.266607,120.923668,-0.030000,0.060000,-0.330000,7.500000,7.500000
1.926000,1,-113.307205,0.709967,-0.280943,120.923668,-0.110000,-0.040000,-0.260000,7.500000,7.500000
1.973000,1,-113.307205,0.709967,-0.280943,120.923668,-0.040000,0.000000,-0.300000,7.500000,7.500000
2.021000,1,-113.559608,0.703878,-0.281310,120.839111,-0.060000,0.030000,-0.280000,7.500000,7.500000
2.069000,1,-113.301521,0.694362,-0.274691,120.923668,-0.080000,0.040000,-0.300000,7.500000,7.500000
2.119000,1,-113.301521,0.694362,-0.274691,121.008217,-0.050000,0.000000,-0.320000,7.500000,7.500000
2.168000,1,-113.559608,0.688134,-0.275057,120.754562,-0.050000,0.000000,-0.310000,7.500000,7.500000
2.217000,1,-113.036377,0.684999,-0.268073,120.585457,-0.060000,0.020000,-0.290000,7.500000,7.500000
2.266000,1,-113.295570,0.678685,-0.268439,120.331795,-0.070000,0.020000,-0.290000,7.500000,7.500000
2.313000,1,-113.559608,0.672603,-0.268805,120.585457,-0.040000,0.010000,-0.300000,7.500000,7.500000
2.361000,1,-113.559608,0.672603,-0.268805,120.754562,-0.090000,0.010000,-0.300000,7.500000,7.500000
2.410000,1,-113.289345,0.663229,-0.262187,120.585457,-0.030000,0.040000,-0.290000,7.500000,7.500000
2.459000,1,-113.289345,0.663229,-0.262187,121.008217,-0.060000,0.010000,-0.280000,7.500000,7.500000
2.509000,1,-113.559608,0.656706,-0.262553,120.331795,-0.080000,0.000000,-0.280000,7.500000,7.500000
2.557000,1,-113.559608,0.656706,-0.262553,120.754562,-0.050000,0.010000,-0.290000,7.500000,7.500000
2.605000,1,-113.835068,0.650719,-0.262920,120.247246,-0.050000,0.030000,-0.280000,7.500000,7.500000
2.652000,1,-113.282822,0.647403,-0.255935,121.008217,-0.040000,0.020000,-0.290000,7.500000,7.500000
2.701000,1,-113.282822,0.647403,-0.255935,120.670006,-0.020000,0.010000,-0.280000,7.500000,7.500000
2.750000,1,-113.559608,0.641330,-0.256301,120.754562,-0.060000,0.010000,-0.250000,7.500000,7.500000
2.800000,1,-113.559608,0.641330,-0.256301,120.585457,-0.060000,0.020000,-0.260000,7.500000,7.500000
2.849000,1,-113.559608,0.641330,-0.256301,120.839111,-0.050000,0.020000,-0.290000,7.500000,7.500000
2.898000,1,-113.559608,0.641330,-0.256301,120.416351,-0.070000,0.010000,-0.280000,7.500000,7.500000
2.946000,1,-113.559608,0.641330,-0.256301,120.923668,-0.060000,0.000000,-0.260000,7.500000,7.500000
2.993000,1,-113.559608,0.641330,-0.256301,120.331795,-0.070000,0.010000,-0.290000,7.500000,7.500000
3.042000,1,-113.559608,0.641330,-0.256301,120.923668,-0.030000,0.010000,-0.280000,7.500000,7.500000
3.089000,1,-113.559608,0.641330,-0.256301,120.585457,-0.050000,0.010000,-0.280000,7.500000,7.500000
3.136000,1,-113.559608,0.641330,-0.256301,121.259232,-0.050000,0.030000,-0.260000,7.500000,7.500000
3.183000,1,-113.559608,0.641330,-0.256301,120.923668,-0.050000,0.030000,-0.240000,7.500000,7.500000
3.232000,1,-113.559608,0.641330,-0.256301,121.008217,-0.040000,0.010000,-0.260000,7.500000,7.500000
3.282000,1,-113.559608,0.641330,-0.256301,121.008217,-0.050000,0.010000,-0.270000,7.500000,7.500000
3.331000,1,-113.559608,0.641330,-0.256301,120.923668,-0.070000,0.020000,-0.280000,7.500000,7.500000
3.381000,1,-113.559608,0.641330,-0.256301,120.754562,-0.030000,0.030000,-0.280000,7.500000,7.500000
3.430000,1,-113.559608,0.641330,-0.256301,120.416351,-0.050000,0.020000,-0.280000,7.500000,7.500000
3.478000,1,-113.559608,0.641330,-0.256301,120.923668,-0.050000,0.000000,-0.250000,7.500000,7.500000
3.525000,1,-113.559608,0.641330,-0.256301,121.090126,-0.050000,0.030000,-0.270000,7.500000,7.500000
3.573000,1,-113.559608,0.641330,-0.256301,120.923668,-0.050000,0.010000,-0.270000,7.500000,7.500000
3.623000,1,-113.559608,0.641330,-0.256301,120.500900,-0.070000,0.020000,-0.290000,7.500000,7.500000
3.672000,1,-113.559608,0.641330,-0.256301,120.754562,-0.060000,0.000000,-0.290000,7.500000,7.500000
3.721000,1,-113.559608,0.641330,-0.256301,120.839111,-0.070000,0.010000,-0.310000,7.500000,7.500000
3.770000,1,-113.559608,0.641330,-0.256301,120.416351,-0.040000,0.020000,-0.270000,7.500000,7.500000
3.818000,1,-113.559608,0.641330,-0.256301,120.670006,-0.070000,0.010000,-0.300000,7.500000,7.500000
3.865000,1,-113.559608,0.641330,-0.256301,120.585457,-0.070000,0.010000,-0.300000,7.500000,7.500000
3.914000,1,-113.559608,0.641330,-0.256301,121.008217,-0.060000,0.030000,-0.270000,7.500000,7.500000
3.963000,1,-113.559608,0.641330,-0.256301,120.923668,-0.040000,0.030000,-0.280000,7.500000,7.500000
4.012000,1,-113.559608,0.641330,-0.256301,120.670006,-0.070000,0.010000,-0.270000,7.500000,7.500000
4.062000,1,-113.559608,0.641330,-0.256301,120.585457,-0.040000,0.020000,-0.260000,7.500000,7.500000
4.110000,1,-113.559608,0.641330,-0.256301,120.500900,-0.050000,0.000000,-0.280000,7.500000,7.500000
4.157000,1,-113.559608,0.641330,-0.256301,120.500900,-0.030000,0.020000,-0.270000,7.500000,7.500000
4.205000,1,-113.559608,0.641330,-0.256301,121.090126,-0.040000,0.010000,-0.280000,7.500000,7.500000
4.254000,1,-113.559608,0.641330,-0.256301,121.008217,-0.060000,0.020000,-0.270000,7.500000,7.500000
4.303000,1,-113.559608,0.641330,-0.256301,120.500900,-0.050000,0.050000,-0.250000,7.500000,7.500000
4.353000,1,-113.559608,0.641330,-0.256301,120.923668,-0.060000,0.010000,-0.260000,7.500000,7.500000
4.402000,1,-113.559608,0.641330,-0.256301,120.670006,-0.030000,0.020000,-0.260000,7.500000,7.500000
4.451000,1,-113.559608,0.641330,-0.256301,120.500900,-0.050000,0.010000,-0.270000,7.500000,7.500000
4.498000,1,-113.559608,0.641330,-0.256301,121.174683,-0.050000,0.010000,-0.290000,7.500000,7.500000
4.546000,1,-113.559608,0.641330,-0.256301,120.839111,-0.050000,0.010000,-0.300000,7.500000,7.500000
4.593000,1,-113.559608,0.641330,-0.256301,120.500900,-0.060000,0.010000,-0.260000,7.500000,7.500000
4.640000,1,-113.559608,0.641330,-0.256301,120.670006,-0.040000,0.010000,-0.280000,7.500000,7.500000
4.688000,1,-113.559608,0.641330,-0.256301,120.670006,-0.030000,0.010000,-0.320000,7.500000,7.500000
4.736000,1,-113.559608,0.641330,-0.256301,120.585457,-0.050000,0.010000,-0.280000,7.500000,7.500000
4.785000,1,-113.559608,0.641330,-0.256301,120.839111,-0.050000,0.010000,-0.280000,7.500000,7.500000
4.835000,1,-113.559608,0.641330,-0.256301,120.247246,-0.050000,0.000000,-0.260000,7.500000,7.500000
4.884000,1,-113.559608,0.641330,-0.256301,120.585457,-0.040000,0.000000,-0.270000,7.500000,7.500000
4.934000,1,-113.559608,0.641330,-0.256301,120.585457,-0.040000,0.010000,-0.280000,7.500000,7.500000
4.982000,1,-113.559608,0.641330,-0.256301,120.500900,-0.050000,0.000000,-0.280000,7.500000,7.500000
5.029000,1,-113.559608,0.641330,-0.256301,120.247246,-0.050000,0.010000,-0.260000,7.500000,7.500000
5.077000,1,-113.559608,0.641330,-0.256301,120.754562,-0.050000,-0.010000,-0.280000,7.500000,7.500000
5.126000,1,-113.559608,0.641330,-0.256301,120.416351,-0.040000,0.010000,-0.300000,7.500000,7.500000
5.175000,1,-113.559608,0.641330,-0.256301,120.585457,-0.050000,0.030000,-0.280000,7.500000,7.500000
5.225000,1,-113.559608,0.641330,-0.256301,120.331795,-0.050000,0.000000,-0.290000,7.500000,7.500000
5.274000,1,-113.559608,0.641330,-0.256301,121.090126,-0.020000,0.030000,-0.310000,7.500000,7.500000
5.323000,1,-113.559608,0.641330,-0.256301,120.754562,-0.040000,0.010000,-0.290000,7.500000,7.500000
5.370000,1,-113.559608,0.641330,-0.256301,121.090126,-0.050000,0.020000,-0.270000,7.500000,7.500000
5.418000,1,-113.559608,0.641330,-0.256301,120.839111,-0.030000,0.010000,-0.290000,7.500000,7.500000
5.467000,1,-113.559608,0.641330,-0.256301,120.247246,-0.030000,0.010000,-0.250000,7.500000,7.500000
5.516000,1,-113.559608,0.641330,-0.256301,120.923668,-0.060000,0.010000,-0.280000,7.500000,7.500000
5.566000,1,-113.559608,0.641330,-0.256301,120.923668,-0.050000,0.000000,-0.290000,7.500000,7.500000
5.615000,1,-113.559608,0.641330,-0.256301,120.331795,-0.050000,0.010000,-0.290000,7.500000,7.500000
5.664000,1,-113.559608,0.641330,-0.256301,121.343788,-0.050000,0.010000,-0.270000,7.500000,7.500000
5.711000,1,-113.559608,0.641330,-0.256301,120.331795,-0.060000,0.000000,-0.250000,7.500000,7.500000
5.758000,1,-113.559608,0.641330,-0.256301,120.500900,-0.050000,0.000000,-0.280000,7.500000,7.500000
5.807000,1,-113.559608,0.641330,-0.256301,119.996223,-0.060000,0.010000,-0.240000,7.500000,7.500000
5.857000,1,-113.559608,0.641330,-0.256301,120.754562,-0.050000,0.020000,-0.280000,7.500000,7.500000
5.906000,1,-113.559608,0.641330,-0.256301,120.500900,-0.060000,0.010000,-0.270000,7.500000,7.500000
5.956000,1,-113.559608,0.641330,-0.256301,121.008217,-0.050000,0.010000,-0.270000,7.500000,7.500000
6.004000,1,-113.559608,0.641330,-0.256301,120.585457,-0.040000,0.010000,-0.290000,7.500000,7.500000
6.051000,1,-113.559608,0.641330,-0.256301,120.585457,-0.040000,0.000000,-0.270000,7.500000,7.500000
6.099000,1,-113.559608,0.641330,-0.256301,120.585457,-0.050000,0.010000,-0.290000,7.500000,7.500000
6.148000,1,-113.559608,0.641330,-0.256301,120.500900,-0.060000,0.010000,-0.300000,7.500000,7.500000
6.195000,1,-113.559608,0.641330,-0.256301,120.165329,-0.050000,0.020000,-0.290000,7.500000,7.500000
6.242000,1,-113.559608,0.641330,-0.256301,120.754562,-0.060000,0.010000,-0.250000,7.500000,7.500000
6.290000,1,-113.559608,0.641330,-0.256301,120.500900,-0.050000,0.030000,-0.290000,7.500000,7.500000
6.339000,1,-113.559608,0.641330,-0.256301,120.585457,-0.070000,0.010000,-0.280000,7.500000,7.500000
6.388000,1,-113.559608,0.641330,-0.256301,120.416351,-0.060000,0.020000,-0.300000,7.500000,7.500000
6.438000,1,-113.559608,0.641330,-0.256301,120.331795,-0.030000,0.040000,-0.300000,7.500000,7.500000
6.487000,1,-113.559608,0.641330,-0.256301,120.585457,-0.050000,0.010000,-0.280000,7.500000,7.500000
6.536000,1,-113.559608,0.641330,-0.256301,120.416351,-0.060000,0.010000,-0.290000,7.500000,7.500000
6.583000,1,-113.559608,0.641330,-0.256301,120.500900,-0.060000,0.010000,-0.300000,7.500000,7.500000
6.630000,1,-113.559608,0.641330,-0.256301,120.416351,-0.060000,0.030000,-0.300000,7.500000,7.500000
6.679000,1,-113.559608,0.641330,-0.256301,120.247246,-0.050000,0.000000,-0.300000,7.500000,7.500000
6.729000,1,-113.559608,0.641330,-0.256301,120.585457,-0.040000,0.020000,-0.310000,7.500000,7.500000
6.778000,1,-113.559608,0.641330,-0.256301,120.500900,-0.070000,0.020000,-0.270000,7.500000,7.500000
6.827000,1,-113.559608,0.641330,-0.256301,120.839111,-0.050000,0.020000,-0.280000,7.500000,7.500000
6.875000,1,-113.559608,0.641330,-0.256301,120.247246,-0.050000,0.010000,-0.260000,7.500000,7.500000
6.922000,1,-113.559608,0.641330,-0.256301,120.500900,-0.050000,0.010000,-0.290000,7.500000,7.500000
6.971000,1,-113.559608,0.641330,-0.256301,120.331795,-0.050000,0.020000,-0.300000,7.500000,7.500000
7.020000,1,-113.559608,0.641330,-0.256301,120.754562,-0.050000,0.000000,-0.280000,7.500000,7.500000
7.069000,1,-113.559608,0.641330,-0.256301,120.585457,-0.060000,0.000000,-0.290000,7.500000,7.500000
7.119000,1,-113.559608,0.641330,-0.256301,120.585457,-0.030000,0.000000,-0.300000,7.500000,7.500000
7.168000,1,-113.559608,0.641330,-0.256301,120.585457,-0.060000,0.000000,-0.260000,7.500000,7.500000
7.216000,1,-113.559608,0.641330,-0.256301,120.416351,-0.050000,0.000000,-0.260000,7.500000,7.500000
7.263000,1,-113.559608,0.641330,-0.256301,120.754562,-0.040000,0.010000,-0.290000,7.500000,7.500000
7.311000,1,-113.559608,0.641330,-0.256301,120.247246,-0.040000,0.010000,-0.280000,7.500000,7.500000
7.360000,1,-113.559608,0.641330,-0.256301,120.839111,-0.050000,0.010000,-0.280000,7.500000,7.500000
7.410000,1,-113.559608,0.641330,-0.256301,120.670006,-0.060000,0.020000,-0.270000,7.500000,7.500000
7.459000,1,-113.559608,0.641330,-0.256301,120.839111,-0.040000,0.030000,-0.270000,7.500000,7.500000
7.508000,1,-113.559608,0.641330,-0.256301,120.923668,-0.060000,0.010000,-0.280000,7.500000,7.500000
7.556000,1,-113.559608,0.641330,-0.256301,120.754562,-0.040000,0.010000,-0.260000,7.500000,7.500000
7.603000,1,-113.559608,0.641330,-0.256301,120.923668,-0.070000,0.020000,-0.260000,7.500000,7.500000
7.652000,1,-113.559608,0.641330,-0.256301,120.754562,-0.040000,0.010000,-0.270000,7.500000,7.500000
7.699000,1,-113.559608,0.641330,-0.256301,120.839111,-0.050000,0.020000,-0.280000,7.500000,7.500000
7.746000,1,-113.559608,0.641330,-0.256301,120.839111,-0.050000,0.010000,-0.270000,7.500000,7.500000
7.793000,1,-113.559608,0.641330,-0.256301,120.839111,-0.040000,0.010000,-0.260000,7.500000,7.500000
7.842000,1,-113.559608,0.641330,-0.256301,120.839111,-0.040000,0.020000,-0.270000,7.500000,7.500000
7.892000,1,-113.559608,0.641330,-0.256301,121.343788,-0.040000,0.020000,-0.280000,7.500000,7.500000
7.941000,1,-113.559608,0.641330,-0.256301,120.585457,-0.060000,0.020000,-0.270000,7.500000,7.500000
7.990000,1,-113.559608,0.641330,-0.256301,120.754562,-0.060000,0.010000,-0.280000,7.500000,7.500000
8.040000,1,-113.559608,0.641330,-0.256301,120.585457,-0.070000,0.000000,-0.290000,7.500000,7.500000
8.088000,1,-113.559608,0.641330,-0.256301,120.247246,-0.050000,0.000000,-0.310000,7.500000,7.500000
8.135000,1,-113.559608,0.641330,-0.256301,120.585457,-0.050000,0.010000,-0.250000,7.500000,7.500000
8.183000,1,-113.559608,0.641330,-0.256301,120.839111,-0.050000,0.000000,-0.280000,7.500000,7.500000
8.232000,1,-113.559608,0.641330,-0.256301,120.839111,-0.030000,0.010000,-0.320000,7.500000,7.500000
8.282000,1,-113.559608,0.641330,-0.256301,120.839111,-0.040000,0.000000,-0.300000,7.500000,7.500000
8.331000,1,-113.559608,0.641330,-0.256301,120.754562,-0.040000,0.000000,-0.300000,7.500000,7.500000
8.380000,1,-113.559608,0.641330,-0.256301,120.585457,-0.050000,0.000000,-0.300000,7.500000,7.500000
8.429000,1,-113.559608,0.641330,-0.256301,120.416351,-0.060000,0.020000,-0.290000,7.500000,7.500000
8.476000,1,-113.559608,0.641330,-0.256301,120.585457,-0.060000,0.010000,-0.300000,7.500000,7.500000
8.524000,1,-113.559608,0.641330,-0.256301,120.247246,-0.030000,0.020000,-0.280000,7.500000,7.500000
8.573000,1,-113.559608,0.641330,-0.256301,120.670006,-0.060000,0.000000,-0.260000,7.500000,7.500000
8.622000,1,-113.559608,0.641330,-0.256301,120.585457,-0.070000,0.000000,-0.260000,7.500000,7.500000
8.672000,1,-113.559608,0.641330,-0.256301,120.500900,-0.060000,0.010000,-0.270000,7.500000,7.500000
8.721000,1,-113.559608,0.641330,-0.256301,120.585457,-0.040000,0.000000,-0.260000,7.500000,7.500000
8.769000,1,-113.559608,0.641330,-0.256301,120.670006,-0.050000,0.010000,-0.270000,7.500000,7.500000
8.816000,1,-113.559608,0.641330,-0.256301,120.500900,-0.030000,0.010000,-0.240000,7.500000,7.500000
8.864000,1,-113.559608,0.641330,-0.256301,120.839111,-0.070000,0.000000,-0.290000,7.500000,7.500000
8.914000,1,-113.559608,0.641330,-0.256301,120.839111,-0.040000,0.010000,-0.290000,7.500000,7.500000
8.963000,1,-113.559608,0.641330,-0.256301,120.923668,-0.040000,0.010000,-0.280000,7.500000,7.500000
9.013000,1,-113.559608,0.641330,-0.256301,120.500900,-0.050000,0.000000,-0.290000,7.500000,7.500000
9.062000,1,-113.559608,0.641330,-0.256301,120.670006,-0.060000,0.010000,-0.260000,7.500000,7.500000
9.110000,1,-113.559608,0.641330,-0.256301,120.923668,-0.050000,0.000000,-0.290000,7.500000,7.500000
9.157000,1,-113.559608,0.641330,-0.256301,120.670006,-0.040000,0.020000,-0.290000,7.500000,7.500000
9.205000,1,-113.559608,0.641330,-0.256301,120.585457,-0.040000,0.010000,-0.250000,7.500000,7.500000
9.254000,1,-113.559608,0.641330,-0.256301,121.090126,-0.050000,0.030000,-0.270000,7.500000,7.500000
9.301000,1,-113.559608,0.641330,-0.256301,120.331795,-0.050000,0.010000,-0.290000,7.500000,7.500000
9.348000,1,-113.559608,0.641330,-0.256301,121.174683,-0.040000,0.000000,-0.270000,7.500000,7.500000
9.396000,1,-113.559608,0.641330,-0.256301,120.754562,-0.050000,0.000000,-0.270000,7.500000,7.500000
9.445000,1,-113.559608,0.641330,-0.256301,120.923668,-0.050000,0.010000,-0.280000,7.500000,7.500000
9.495000,1,-113.559608,0.641330,-0.256301,120.754562,-0.040000,0.010000,-0.290000,7.500000,7.500000
9.544000,1,-113.559608,0.641330,-0.256301,120.839111,-0.060000,0.000000,-0.250000,7.500000,7.500000
9.593000,1,-113.559608,0.641330,-0.256301,120.585457,-0.050000,0.010000,-0.280000,7.500000,7.500000
9.642000,1,-113.559608,0.641330,-0.256301,121.008217,-0.040000,0.030000,-0.290000,7.500000,7.500000
9.689000,1,-113.559608,0.641330,-0.256301,120.331795,-0.050000,0.010000,-0.280000,7.500000,7.500000
9.737000,1,-113.559608,0.641330,-0.256301,120.331795,-0.070000,0.020000,-0.290000,7.500000,7.500000
9.786000,1,-113.559608,0.641330,-0.256301,120.923668,-0.060000,0.020000,-0.290000,7.500000,7.500000
9.835000,1,-113.559608,0.641330,-0.256301,120.839111,-0.050000,0.010000,-0.300000,7.500000,7.500000
9.884000,1,-113.559608,0.641330,-0.256301,120.670006,-0.060000,0.010000,-0.280000,7.500000,7.500000
9.934000,1,-113.559608,0.641330,-0.256301,120.839111,-0.040000,0.010000,-0.290000,7.500000,7.500000
9.982000,1,-113.559608,0.641330,-0.256301,120.839111,-0.060000,0.000000,-0.300000,7.500000,7.500000
10.030000,1,-113.559608,0.641330,-0.256301,120.585457,-0.060000,0.010000,-0.300000,7.500000,7.500000
10.077000,1,-113.559608,0.641330,-0.256301,120.670006,-0.050000,0.010000,-0.300000,7.500000,7.500000
10.126000,1,-113.559608,0.641330,-0.256301,120.416351,-0.060000,0.010000,-0.250000,7.500000,7.500000
10.176000,1,-113.559608,0.641330,-0.256301,120.923668,-0.060000,0.000000,-0.260000,7.500000,7.500000
10.225000,1,-113.559608,0.641330,-0.256301,120.500900,-0.060000,0.020000,-0.280000,7.500000,7.500000
10.275000,1,-113.559608,0.641330,-0.256301,120.754562,-0.060000,0.020000,-0.270000,7.500000,7.500000
10.323000,1,-113.559608,0.641330,-0.256301,120.585457,-0.070000,0.000000,-0.260000,7.500000,7.500000
10.370000,1,-113.559608,0.641330,-0.256301,120.839111,-0.050000,0.010000,-0.290000,7.500000,7.500000
10.418000,1,-113.559608,0.641330,-0.256301,120.585457,-0.050000,0.000000,-0.270000,7.500000,7.500000
10.467000,1,-113.559608,0.641330,-0.256301,121.090126,-0.050000,0.010000,-0.250000,7.500000,7.500000
10.516000,1,-113.559608,0.641330,-0.256301,121.174683,-0.050000,0.010000,-0.290000,7.500000,7.500000
10.566000,1,-113.559608,0.641330,-0.256301,120.839111,-0.070000,0.000000,-0.270000,7.500000,7.500000
10.615000,1,-113.559608,0.641330,-0.256301,120.839111,-0.060000,0.000000,-0.270000,7.500000,7.500000
10.663000,1,-113.559608,0.641330,-0.256301,120.754562,-0.030000,0.010000,-0.250000,7.500000,7.500000
10.710000,1,-113.559608,0.641330,-0.256301,121.008217,-0.040000,0.020000,-0.270000,7.500000,7.500000
10.758000,1,-113.559608,0.641330,-0.256301,121.008217,-0.050000,0.000000,-0.270000,7.500000,7.500000
10.806000,1,-113.559608,0.641330,-0.256301,120.670006,-0.050000,0.000000,-0.260000,7.500000,7.500000
10.853000,1,-113.559608,0.641330,-0.256301,120.670006,-0.040000,0.020000,-0.270000,7.500000,7.500000
10.900000,1,-113.559608,0.641330,-0.256301,120.247246,-0.060000,0.010000,-0.310000,7.500000,7.500000
10.949000,1,-113.559608,0.641330,-0.256301,120.670006,-0.060000,0.010000,-0.240000,7.500000,7.500000
10.998000,1,-113.559608,0.641330,-0.256301,120.923668,-0.050000,0.010000,-0.270000,7.500000,7.500000
11.048000,1,-113.559608,0.641330,-0.256301,120.585457,-0.050000,0.000000,-0.250000,7.500000,7.500000
11.097000,1,-113.559608,0.641330,-0.256301,120.923668,-0.040000,0.030000,-0.280000,7.500000,7.500000
11.146000,1,-113.559608,0.641330,-0.256301,120.923668,-0.050000,0.010000,-0.260000,7.500000,7.500000
11.195000,1,-113.559608,0.641330,-0.256301,121.008217,-0.030000,0.000000,-0.280000,7.500000,7.500000
11.242000,1,-113.559608,0.641330,-0.256301,121.174683,-0.050000,0.010000,-0.280000,7.500000,7.500000
11.290000,1,-113.559608,0.641330,-0.256301,121.008217,-0.050000,0.010000,-0.280000,7.500000,7.500000
11.339000,1,-113.559608,0.641330,-0.256301,120.585457,-0.050000,0.010000,-0.320000,7.500000,7.500000
11.388000,1,-113.559608,0.641330,-0.256301,121.008217,-0.070000,0.000000,-0.300000,7.500000,7.500000
11.438000,1,-113.559608,0.641330,-0.256301,121.008217,-0.040000,0.020000,-0.290000,7.500000,7.500000
11.487000,1,-113.559608,0.641330,-0.256301,120.754562,-0.050000,0.020000,-0.310000,7.500000,7.500000
11.535000,1,-113.559608,0.641330,-0.256301,121.008217,-0.060000,0.020000,-0.280000,7.500000,7.500000
11.582000,1,-113.559608,0.641330,-0.256301,121.259232,-0.060000,0.010000,-0.290000,7.500000,7.500000
11.630000,1,-113.559608,0.641330,-0.256301,121.259232,-0.040000,0.010000,-0.290000,7.500000,7.500000
11.679000,1,-113.559608,0.641330,-0.256301,120.754562,-0.050000,0.010000,-0.270000,7.500000,7.500000
11.729000,1,-113.559608,0.641330,-0.256301,120.754562,-0.060000,0.010000,-0.270000,7.500000,7.500000
11.778000,1,-113.559608,0.641330,-0.256301,121.090126,-0.050000,0.020000,-0.280000,7.500000,7.500000
11.827000,1,-113.559608,0.641330,-0.256301,121.090126,-0.060000,0.010000,-0.270000,7.500000,7.500000
11.875000,1,-113.559608,0.641330,-0.256301,120.754562,-0.050000,0.000000,-0.270000,7.500000,7.500000
11.922000,1,-113.559608,0.641330,-0.256301,121.174683,-0.050000,0.010000,-0.270000,7.500000,7.500000
11.971000,1,-113.559608,0.641330,-0.256301,120.585457,-0.050000,0.010000,-0.270000,7.500000,7.500000
12.020000,1,-113.559608,0.641330,-0.256301,120.670006,-0.060000,0.010000,-0.280000,7.500000,7.500000
12.069000,1,-113.559608,0.641330,-0.256301,121.174683,-0.030000,0.010000,-0.270000,7.500000,7.500000
12.119000,1,-113.559608,0.641330,-0.256301,121.259232,-0.060000,0.010000,-0.280000,7.500000,7.500000
12.168000,1,-113.559608,0.641330,-0.256301,121.174683,-0.050000,0.010000,-0.270000,7.500000,7.500000
12.216000,1,-113.559608,0.641330,-0.256301,121.259232,-0.060000,0.010000,-0.270000,7.500000,7.500000
12.263000,1,-113.559608,0.641330,-0.256301,121.343788,-0.030000,0.010000,-0.250000,7.500000,7.500000
12.311000,1,-113.559608,0.641330,-0.256301,121.343788,-0.050000,0.010000,-0.250000,7.500000,7.500000
12.359000,1,-113.559608,0.641330,-0.256301,120.839111,-0.050000,0.020000,-0.280000,7.500000,7.500000
12.406000,1,-113.559608,0.641330,-0.256301,121.259232,-0.040000,0.000000,-0.290000,7.500000,7.500000
12.453000,1,-113.559608,0.641330,-0.256301,120.754562,-0.050000,0.000000,-0.270000,7.500000,7.500000
12.502000,1,-113.559608,0.641330,-0.256301,121.090126,-0.060000,0.000000,-0.280000,7.500000,7.500000
12.551000,1,-113.559608,0.641330,-0.256301,120.923668,-0.050000,0.000000,-0.260000,7.500000,7.500000
12.601000,1,-113.559608,0.641330,-0.256301,121.343788,-0.050000,0.000000,-0.290000,7.500000,7.500000
12.650000,1,-113.559608,0.641330,-0.256301,121.343788,-0.050000,0.000000,-0.260000,7.500000,7.500000
12.700000,1,-113.559608,0.641330,-0.256301,121.008217,-0.060000,0.000000,-0.260000,7.500000,7.500000
12.748000,1,-113.559608,0.641330,-0.256301,120.923668,-0.050000,0.020000,-0.260000,7.500000,7.500000
12.795000,1,-113.559608,0.641330,-0.256301,121.259232,-0.040000,0.010000,-0.290000,7.500000,7.500000
12.843000,1,-113.559608,0.641330,-0.256301,121.090126,-0.050000,0.020000,-0.250000,7.500000,7.500000
12.892000,1,-113.559608,0.641330,-0.256301,120.923668,-0.040000,0.010000,-0.280000,7.500000,7.500000
12.941000,1,-113.559608,0.641330,-0.256301,120.923668,-0.060000,0.000000,-0.300000,7.500000,7.500000
12.991000,1,-113.559608,0.641330,-0.256301,121.090126,-0.050000,0.020000,-0.280000,7.500000,7.500000
13.040000,1,-113.559608,0.641330,-0.256301,120.923668,-0.050000,0.010000,-0.290000,7.500000,7.500000
13.089000,1,-113.559608,0.641330,-0.256301,120.839111,-0.040000,0.000000,-0.280000,7.500000,7.500000
13.136000,1,-113.559608,0.641330,-0.256301,121.090126,-0.060000,0.000000,-0.290000,7.500000,7.500000
13.184000,1,-113.559608,0.641330,-0.256301,120.585457,-0.050000,0.010000,-0.290000,7.500000,7.500000
13.233000,1,-113.559608,0.641330,-0.256301,120.839111,-0.050000,0.010000,-0.270000,7.500000,7.500000
13.282000,1,-113.559608,0.641330,-0.256301,120.670006,-0.040000,0.010000,-0.270000,7.500000,7.500000
13.331000,1,-113.559608,0.641330,-0.256301,121.008217,-0.060000,0.000000,-0.250000,7.500000,7.500000
13.381000,1,-113.559608,0.641330,-0.256301,120.670006,-0.060000,0.020000,-0.290000,7.500000,7.500000
13.429000,1,-113.559608,0.641330,-0.256301,120.923668,-0.050000,0.010000,-0.280000,7.500000,7.500000
13.476000,1,-113.559608,0.641330,-0.256301,121.174683,-0.050000,0.010000,-0.290000,7.500000,7.500000
13.524000,1,-113.559608,0.641330,-0.256301,120.500900,-0.050000,0.010000,-0.280000,7.500000,7.500000
13.573000,1,-113.559608,0.641330,-0.256301,120.839111,-0.060000,0.010000,-0.260000,7.500000,7.500000
13.623000,1,-113.559608,0.641330,-0.256301,120.839111,-0.060000,0.010000,-0.280000,7.500000,7.500000
13.672000,1,-113.559608,0.641330,-0.256301,121.008217,-0.040000,0.010000,-0.250000,7.500000,7.500000
13.722000,1,-113.559608,0.641330,-0.256301,121.090126,-0.050000,0.000000,-0.230000,7.500000,7.500000
13.770000,1,-113.559608,0.641330,-0.256301,120.839111,-0.040000,0.010000,-0.260000,7.500000,7.500000
13.817000,1,-113.559608,0.641330,-0.256301,120.839111,-0.060000,0.000000,-0.280000,7.500000,7.500000
13.865000,1,-113.559608,0.641330,-0.256301,120.923668,-0.060000,0.000000,-0.290000,7.500000,7.500000
13.913000,1,-113.559608,0.641330,-0.256301,120.670006,-0.050000,0.000000,-0.270000,7.500000,7.500000
13.960000,1,-113.559608,0.641330,-0.256301,121.090126,-0.050000,0.010000,-0.240000,7.500000,7.500000
14.007000,1,-113.559608,0.641330,-0.256301,120.923668,-0.050000,0.000000,-0.280000,7.500000,7.500000
14.055000,1,-113.559608,0.641330,-0.256301,121.174683,-0.070000,0.000000,-0.270000,7.500000,7.500000
14.105000,1,-113.559608,0.641330,-0.256301,121.008217,-0.040000,0.000000,-0.250000,7.500000,7.500000
14.154000,1,-113.559608,0.641330,-0.256301,121.008217,-0.070000,0.000000,-0.300000,7.500000,7.500000
14.203000,1,-113.559608,0.641330,-0.256301,121.090126,-0.050000,0.030000,-0.300000,7.500000,7.500000
14.253000,1,-113.559608,0.641330,-0.256301,121.174683,-0.050000,0.010000,-0.260000,7.500000,7.500000
14.301000,1,-113.559608,0.641330,-0.256301,121.090126,-0.070000,0.010000,-0.270000,7.500000,7.500000
14.348000,1,-113.559608,0.641330,-0.256301,121.343788,-0.060000,0.010000,-0.280000,7.500000,7.500000
14.396000,1,-113.559608,0.641330,-0.256301,120.585457,-0.050000,0.000000,-0.240000,7.500000,7.500000
14.445000,1,-113.559608,0.641330,-0.256301,120.585457,-0.040000,0.010000,-0.290000,7.500000,7.500000
14.494000,1,-113.559608,0.641330,-0.256301,120.839111,-0.050000,0.000000,-0.310000,7.500000,7.500000
14.544000,1,-113.559608,0.641330,-0.256301,121.174683,-0.060000,-0.010000,-0.300000,7.500000,7.500000
14.593000,1,-113.559608,0.641330,-0.256301,121.090126,-0.060000,0.010000,-0.300000,7.500000,7.500000
14.641000,1,-113.559608,0.641330,-0.256301,121.008217,-0.070000,0.010000,-0.280000,7.500000,7.500000
14.688000,1,-113.559608,0.641330,-0.256301,121.174683,-0.040000,0.000000,-0.300000,7.500000,7.500000
14.737000,1,-113.559608,0.641330,-0.256301,121.174683,-0.050000,0.000000,-0.300000,7.500000,7.500000
14.786000,1,-113.559608,0.641330,-0.256301,120.670006,-0.030000,0.000000,-0.240000,7.500000,7.500000
14.835000,1,-113.559608,0.641330,-0.256301,121.343788,-0.060000,0.000000,-0.270000,7.500000,7.500000
14.884000,1,-113.559608,0.641330,-0.256301,120.754562,-0.070000,0.000000,-0.270000,7.500000,7.500000
14.934000,1,-113.559608,0.641330,-0.256301,121.259232,-0.050000,0.000000,-0.270000,7.500000,7.500000
14.982000,1,-113.559608,0.641330,-0.256301,120.923668,-0.080000,0.000000,-0.300000,7.500000,7.500000
15.029000,1,-113.559608,0.641330,-0.256301,121.090126,-0.050000,0.000000,-0.290000,7.500000,7.500000
15.077000,1,-113.559608,0.641330,-0.256301,121.343788,-0.060000,-0.010000,-0.240000,7.500000,7.500000
15.126000,1,-113.559608,0.641330,-0.256301,121.008217,-0.060000,0.010000,-0.290000,7.500000,7.500000
15.176000,1,-113.559608,0.641330,-0.256301,120.839111,-0.040000,0.000000,-0.280000,7.500000,7.500000
15.225000,1,-113.559608,0.641330,-0.256301,121.343788,-0.060000,0.010000,-0.280000,7.500000,7.500000
15.274000,1,-113.559608,0.641330,-0.256301,121.343788,-0.070000,0.010000,-0.230000,7.500000,7.500000
15.322000,1,-113.559608,0.641330,-0.256301,121.259232,-0.050000,0.010000,-0.230000,7.500000,7.500000
15.369000,1,-113.559608,0.641330,-0.256301,121.259232,-0.060000,0.020000,-0.250000,7.500000,7.500000
15.418000,1,-113.559608,0.641330,-0.256301,121.174683,-0.040000,0.010000,-0.280000,7.500000,7.500000
15.466000,1,-113.559608,0.641330,-0.256301,121.679352,-0.060000,0.010000,-0.280000,7.500000,7.500000
15.513000,1,-113.559608,0.641330,-0.256301,120.923668,-0.040000,0.010000,-0.250000,7.500000,7.500000
15.560000,1,-113.559608,0.641330,-0.256301,120.754562,-0.070000,0.000000,-0.270000,7.500000,7.500000
15.608000,1,-113.559608,0.641330,-0.256301,121.090126,-0.070000,0.010000,-0.260000,7.500000,7.500000
15.658000,1,-113.559608,0.641330,-0.256301,121.933014,-0.050000,0.000000,-0.260000,7.500000,7.500000
15.707000,1,-113.559608,0.641330,-0.256301,121.343788,-0.060000,0.010000,-0.270000,7.500000,7.500000
15.756000,1,-113.559608,0.641330,-0.256301,121.343788,-0.060000,0.000000,-0.280000,7.500000,7.500000
15.806000,1,-113.559608,0.641330,-0.256301,121.259232,-0.050000,0.010000,-0.270000,7.500000,7.500000
15.854000,1,-113.559608,0.641330,-0.256301,121.174683,-0.050000,0.000000,-0.280000,7.500000,7.500000
15.901000,1,-113.559608,0.641330,-0.256301,121.008217,-0.040000,-0.020000,-0.280000,7.500000,7.500000
15.949000,1,-113.559608,0.641330,-0.256301,121.512894,-0.060000,0.000000,-0.290000,7.500000,7.500000
15.998000,1,-113.559608,0.641330,-0.256301,121.763908,-0.060000,0.010000,-0.290000,7.500000,7.500000
16.048000,1,-113.559608,0.641330,-0.256301,121.090126,-0.060000,0.010000,-0.320000,7.500000,7.500000
16.097000,1,-113.559608,0.641330,-0.256301,121.174683,-0.060000,0.010000,-0.280000,7.500000,7.500000
16.146000,1,-113.559608,0.641330,-0.256301,121.343788,-0.040000,-0.010000,-0.290000,7.500000,7.500000
16.194000,1,-113.559608,0.641330,-0.256301,121.428337,-0.050000,-0.010000,-0.280000,7.500000,7.500000
16.242001,1,-113.559608,0.641330,-0.256301,121.343788,-0.040000,-0.010000,-0.290000,7.500000,7.500000
16.290001,1,-113.559608,0.641330,-0.256301,121.679352,-0.060000,0.000000,-0.250000,7.500000,7.500000
16.339001,1,-113.559608,0.641330,-0.256301,121.763908,-0.040000,0.000000,-0.270000,7.500000,7.500000
16.388000,1,-113.559608,0.641330,-0.256301,121.512894,-0.070000,0.000000,-0.270000,7.500000,7.500000
16.437000,1,-113.559608,0.641330,-0.256301,121.428337,-0.060000,0.010000,-0.270000,7.500000,7.500000
16.487000,1,-113.559608,0.641330,-0.256301,121.848457,-0.050000,-0.030000,-0.250000,7.500000,7.500000
16.535000,1,-113.559608,0.641330,-0.256301,121.090126,-0.050000,0.000000,-0.260000,7.500000,7.500000
16.582001,1,-113.559608,0.641330,-0.256301,121.428337,-0.050000,0.010000,-0.260000,7.500000,7.500000
16.629999,1,-113.559608,0.641330,-0.256301,120.923668,-0.060000,0.010000,-0.280000,7.500000,7.500000
16.679001,1,-113.559608,0.641330,-0.256301,121.259232,-0.050000,0.010000,-0.270000,7.500000,7.500000
16.729000,1,-113.559608,0.641330,-0.256301,121.512894,-0.060000,0.010000,-0.250000,7.500000,7.500000
16.778000,1,-113.559608,0.641330,-0.256301,120.754562,-0.050000,0.010000,-0.270000,7.500000,7.500000
16.827999,1,-113.559608,0.641330,-0.256301,121.343788,-0.060000,0.000000,-0.260000,7.500000,7.500000
16.875999,1,-113.559608,0.641330,-0.256301,121.428337,-0.060000,0.000000,-0.280000,7.500000,7.500000
16.923000,1,-113.559608,0.641330,-0.256301,121.174683,-0.070000,0.010000,-0.280000,7.500000,7.500000
16.971001,1,-113.559608,0.641330,-0.256301,121.597443,-0.060000,0.000000,-0.260000,7.500000,7.500000
17.018999,1,-113.559608,0.641330,-0.256301,121.597443,-0.060000,0.000000,-0.260000,7.500000,7.500000
17.066000,1,-113.559608,0.641330,-0.256301,121.512894,-0.080000,0.010000,-0.280000,7.500000,7.500000
17.113001,1,-113.559608,0.641330,-0.256301,121.428337,-0.060000,0.010000,-0.280000,7.500000,7.500000
17.160999,1,-113.559608,0.641330,-0.256301,122.017563,-0.070000,0.010000,-0.260000,7.500000,7.500000
17.211000,1,-113.559608,0.641330,-0.256301,121.597443,-0.040000,0.000000,-0.290000,7.500000,7.500000
17.260000,1,-113.559608,0.641330,-0.256301,121.763908,-0.070000,0.000000,-0.270000,7.500000,7.500000
17.309000,1,-113.559608,0.641330,-0.256301,121.428337,-0.070000,0.000000,-0.280000,7.500000,7.500000
17.358999,1,-113.559608,0.641330,-0.256301,121.763908,-0.050000,0.000000,-0.300000,7.500000,7.500000
17.407000,1,-113.559608,0.641330,-0.256301,121.512894,-0.040000,0.010000,-0.260000,7.500000,7.500000
17.454000,1,-113.559608,0.641330,-0.256301,121.174683,-0.060000,0.020000,-0.280000,7.500000,7.500000
17.502001,1,-113.559608,0.641330,-0.256301,121.090126,-0.060000,0.000000,-0.290000,7.500000,7.500000
17.551001,1,-113.559608,0.641330,-0.256301,121.763908,-0.060000,0.010000,-0.270000,7.500000,7.500000
17.600000,1,-113.559608,0.641330,-0.256301,121.428337,-0.050000,0.010000,-0.300000,7.500000,7.500000
17.650000,1,-113.559608,0.641330,-0.256301,121.259232,-0.050000,0.000000,-0.290000,7.500000,7.500000
17.698999,1,-113.559608,0.641330,-0.256301,121.259232,-0.060000,0.000000,-0.280000,7.500000,7.500000
17.747000,1,-113.559608,0.641330,-0.256301,121.512894,-0.050000,0.000000,-0.270000,7.500000,7.500000
17.794001,1,-113.559608,0.641330,-0.256301,121.679352,-0.070000,0.000000,-0.290000,7.500000,7.500000
17.843000,1,-113.559608,0.641330,-0.256301,121.597443,-0.060000,0.000000,-0.290000,7.500000,7.500000
17.892000,1,-113.559608,0.641330,-0.256301,121.428337,-0.070000,0.000000,-0.260000,7.500000,7.500000
17.941000,1,-113.559608,0.641330,-0.256301,121.259232,-0.060000,0.010000,-0.280000,7.500000,7.500000
17.990000,1,-113.559608,0.641330,-0.256301,121.428337,-0.050000,0.010000,-0.230000,7.500000,7.500000
18.040001,1,-113.559608,0.641330,-0.256301,121.259232,-0.060000,0.000000,-0.260000,7.500000,7.500000
18.087999,1,-113.559608,0.641330,-0.256301,121.008217,-0.050000,0.000000,-0.270000,7.500000,7.500000
18.135000,1,-113.559608,0.641330,-0.256301,121.597443,-0.080000,0.000000,-0.250000,7.500000,7.500000
18.183001,1,-113.559608,0.641330,-0.256301,121.428337,-0.070000,0.000000,-0.280000,7.500000,7.500000
18.232000,1,-113.559608,0.641330,-0.256301,121.428337,-0.050000,0.000000,-0.260000,7.500000,7.500000
18.282000,1,-113.559608,0.641330,-0.256301,121.008217,-0.040000,0.010000,-0.250000,7.500000,7.500000
18.330999,1,-113.559608,0.641330,-0.256301,120.923668,-0.050000,0.000000,-0.270000,7.500000,7.500000
18.379999,1,-113.559608,0.641330,-0.256301,121.512894,-0.040000,0.000000,-0.260000,7.500000,7.500000
18.429001,1,-113.559608,0.641330,-0.256301,121.597443,-0.060000,0.010000,-0.250000,7.500000,7.500000
18.476000,1,-113.559608,0.641330,-0.256301,121.174683,-0.040000,0.010000,-0.260000,7.500000,7.500000
18.524000,1,-113.559608,0.641330,-0.256301,121.090126,-0.050000,0.010000,-0.290000,7.500000,7.500000
18.572001,1,-113.559608,0.641330,-0.256301,121.763908,-0.060000,0.000000,-0.270000,7.500000,7.500000
18.618999,1,-113.559608,0.641330,-0.256301,121.008217,-0.050000,-0.010000,-0.290000,7.500000,7.500000
18.666000,1,-113.559608,0.641330,-0.256301,121.174683,-0.050000,0.010000,-0.270000,7.500000,7.500000
18.715000,1,-113.559608,0.641330,-0.256301,120.500900,-0.060000,0.000000,-0.280000,7.500000,7.500000
18.764000,1,-113.559608,0.641330,-0.256301,120.754562,-0.090000,0.000000,-0.260000,7.500000,7.500000
18.813000,1,-113.559608,0.641330,-0.256301,121.343788,-0.040000,0.000000,-0.280000,7.500000,7.500000
18.862000,1,-113.559608,0.641330,-0.256301,121.428337,-0.050000,0.000000,-0.260000,7.500000,7.500000
18.912001,1,-113.559608,0.641330,-0.256301,121.428337,-0.050000,0.010000,-0.280000,7.500000,7.500000
18.959999,1,-113.559608,0.641330,-0.256301,121.428337,-0.050000,0.010000,-0.250000,7.500000,7.500000
19.007000,1,-113.559608,0.641330,-0.256301,121.763908,-0.050000,0.010000,-0.270000,7.500000,7.500000
19.055000,1,-113.559608,0.641330,-0.256301,121.597443,-0.050000,-0.010000,-0.260000,7.500000,7.500000
19.104000,1,-113.559608,0.641330,-0.256301,121.343788,-0.060000,0.010000,-0.290000,7.500000,7.500000
19.153999,1,-113.559608,0.641330,-0.256301,121.512894,-0.050000,0.000000,-0.260000,7.500000,7.500000
19.202999,1,-113.559608,0.641330,-0.256301,121.174683,-0.050000,0.000000,-0.280000,7.500000,7.500000
19.252001,1,-113.559608,0.641330,-0.256301,121.259232,-0.060000,0.000000,-0.320000,7.500000,7.500000
19.301001,1,-113.559608,0.641330,-0.256301,121.343788,-0.050000,0.000000,-0.280000,7.500000,7.500000
19.348000,1,-113.559608,0.641330,-0.256301,121.174683,-0.070000,0.010000,-0.260000,7.500000,7.500000
19.396000,1,-113.559608,0.641330,-0.256301,121.512894,-0.040000,0.000000,-0.280000,7.500000,7.500000
19.445000,1,-113.559608,0.641330,-0.256301,121.763908,-0.060000,0.010000,-0.230000,7.500000,7.500000
19.493999,1,-113.559608,0.641330,-0.256301,121.763908,-0.050000,0.000000,-0.290000,7.500000,7.500000
19.542999,1,-113.559608,0.641330,-0.256301,121.174683,-0.060000,0.000000,-0.260000,7.500000,7.500000
19.593000,1,-113.559608,0.641330,-0.256301,121.512894,-0.050000,0.000000,-0.280000,7.500000,7.500000
19.641001,1,-113.559608,0.641330,-0.256301,121.259232,-0.050000,0.000000,-0.260000,7.500000,7.500000
19.688000,1,-113.559608,0.641330,-0.256301,121.679352,-0.060000,0.010000,-0.270000,7.500000,7.500000
19.736000,1,-113.559608,0.641330,-0.256301,121.259232,-0.060000,0.000000,-0.300000,7.500000,7.500000
19.785000,1,-113.559608,0.641330,-0.256301,121.512894,-0.070000,0.010000,-0.260000,7.500000,7.500000
19.834999,1,-113.559608,0.641330,-0.256301,121.259232,-0.060000,0.000000,-0.280000,7.500000,7.500000
19.884001,1,-113.559608,0.641330,-0.256301,121.597443,-0.060000,0.010000,-0.260000,7.500000,7.500000
19.933001,1,-113.559608,0.641330,-0.256301,121.259232,-0.060000,0.000000,-0.260000,7.500000,7.500000
19.981001,1,-113.559608,0.641330,-0.256301,121.679352,-0.050000,0.000000,-0.260000,7.500000,7.500000
20.028999,1,-113.559608,0.641330,-0.256301,121.090126,-0.050000,0.010000,-0.280000,7.500000,7.500000
20.077000,1,-113.559608,0.641330,-0.256301,122.102119,-0.050000,0.000000,-0.260000,7.500000,7.500000
20.124001,1,-113.559608,0.641330,-0.256301,121.343788,-0.050000,0.020000,-0.280000,7.500000,7.500000
20.171000,1,-113.559608,0.641330,-0.256301,121.428337,-0.070000,0.030000,-0.270000,7.500000,7.500000
20.218000,1,-113.559608,0.641330,-0.256301,121.428337,-0.070000,0.000000,-0.270000,7.500000,7.500000
20.267000,1,-113.559608,0.641330,-0.256301,121.259232,-0.050000,0.020000,-0.280000,7.500000,7.500000
20.316000,1,-113.559608,0.641330,-0.256301,121.512894,-0.050000,0.010000,-0.270000,7.500000,7.500000
20.365999,1,-113.559608,0.641330,-0.256301,121.090126,-0.070000,0.000000,-0.260000,7.500000,7.500000
20.415001,1,-113.559608,0.641330,-0.256301,121.259232,-0.060000,0.000000,-0.290000,7.500000,7.500000
20.465000,1,-113.559608,0.641330,-0.256301,121.174683,-0.060000,0.000000,-0.250000,7.500000,7.500000
20.513000,1,-113.559608,0.641330,-0.256301,121.343788,-0.070000,0.000000,-0.270000,7.500000,7.500000
20.559999,1,-113.559608,0.641330,-0.256301,121.090126,-0.040000,0.020000,-0.290000,7.500000,7.500000
20.608000,1,-113.559608,0.641330,-0.256301,121.512894,-0.060000,0.010000,-0.290000,7.500000,7.500000
20.657000,1,-113.559608,0.641330,-0.256301,121.343788,-0.060000,0.000000,-0.280000,7.500000,7.500000
20.705999,1,-113.559608,0.641330,-0.256301,121.597443,-0.060000,0.010000,-0.290000,7.500000,7.500000
20.756001,1,-113.559608,0.641330,-0.256301,121.512894,-0.050000,0.000000,-0.290000,7.500000,7.500000
20.805000,1,-113.559608,0.641330,-0.256301,121.259232,-0.070000,0.010000,-0.300000,7.500000,7.500000
20.853001,1,-113.559608,0.641330,-0.256301,121.174683,-0.060000,0.010000,-0.290000,7.500000,7.500000
20.900000,1,-113.559608,0.641330,-0.256301,121.763908,-0.050000,0.000000,-0.280000,7.500000,7.500000
20.948000,1,-113.559608,0.641330,-0.256301,121.512894,-0.070000,-0.010000,-0.290000,7.500000,7.500000
20.997999,1,-113.559608,0.641330,-0.256301,121.090126,-0.070000,0.010000,-0.300000,7.500000,7.500000
21.047001,1,-113.559608,0.641330,-0.256301,120.839111,-0.050000,0.000000,-0.310000,7.500000,7.500000
21.096001,1,-113.559608,0.641330,-0.256301,121.343788,-0.050000,0.000000,-0.260000,7.500000,7.500000
21.146000,1,-113.559608,0.641330,-0.256301,121.512894,-0.040000,0.000000,-0.250000,7.500000,7.500000
21.194000,1,-113.559608,0.641330,-0.256301,121.259232,-0.050000,0.000000,-0.260000,7.500000,7.500000
21.240999,1,-113.559608,0.641330,-0.256301,121.679352,-0.050000,0.000000,-0.300000,7.500000,7.500000
21.289000,1,-113.559608,0.641330,-0.256301,121.763908,-0.040000,0.010000,-0.270000,7.500000,7.500000
21.337999,1,-113.559608,0.641330,-0.256301,121.428337,-0.080000,0.010000,-0.280000,7.500000,7.500000
21.388000,1,-113.559608,0.641330,-0.256301,121.259232,-0.050000,0.010000,-0.260000,7.500000,7.500000
21.437000,1,-113.559608,0.641330,-0.256301,121.512894,-0.060000,-0.010000,-0.270000,7.500000,7.500000
21.486000,1,-113.559608,0.641330,-0.256301,121.259232,-0.020000,0.010000,-0.250000,7.500000,7.500000
21.534000,1,-113.559608,0.641330,-0.256301,121.512894,-0.070000,0.000000,-0.260000,7.500000,7.500000
21.580999,1,-113.559608,0.641330,-0.256301,121.428337,-0.060000,0.000000,-0.250000,7.500000,7.500000
21.629999,1,-113.559608,0.641330,-0.256301,121.597443,-0.070000,0.010000,-0.280000,7.500000,7.500000
21.677999,1,-113.559608,0.641330,-0.256301,121.174683,-0.070000,0.010000,-0.250000,7.500000,7.500000
21.725000,1,-113.559608,0.641330,-0.256301,121.933014,-0.050000,-0.010000,-0.290000,7.500000,7.500000
21.771999,1,-113.559608,0.641330,-0.256301,121.428337,-0.070000,0.010000,-0.270000,7.500000,7.500000
21.820000,1,-113.559608,0.641330,-0.256301,121.679352,-0.050000,0.010000,-0.250000,7.500000,7.500000
21.868999,1,-113.559608,0.641330,-0.256301,121.933014,-0.060000,0.010000,-0.270000,7.500000,7.500000
21.919001,1,-113.559608,0.641330,-0.256301,121.259232,-0.060000,0.000000,-0.290000,7.500000,7.500000
21.968000,1,-113.559608,0.641330,-0.256301,121.848457,-0.050000,0.010000,-0.280000,7.500000,7.500000
22.018000,1,-113.559608,0.641330,-0.256301,121.512894,-0.050000,0.000000,-0.300000,7.500000,7.500000
22.066000,1,-113.559608,0.641330,-0.256301,121.597443,-0.040000,0.000000,-0.250000,7.500000,7.500000
22.113001,1,-113.559608,0.641330,-0.256301,121.763908,-0.050000,0.010000,-0.250000,7.500000,7.500000
22.160999,1,-113.559608,0.641330,-0.256301,121.259232,-0.060000,0.000000,-0.240000,7.500000,7.500000
22.209999,1,-113.559608,0.641330,-0.256301,121.259232,-0.050000,0.000000,-0.330000,7.500000,7.500000
22.259001,1,-113.559608,0.641330,-0.256301,121.512894,-0.030000,0.020000,-0.290000,7.500000,7.500000
22.309000,1,-113.559608,0.641330,-0.256301,121.090126,-0.050000,0.000000,-0.280000,7.500000,7.500000
22.358000,1,-113.559608,0.641330,-0.256301,121.428337,-0.040000,0.000000,-0.290000,7.500000,7.500000
22.406000,1,-113.559608,0.641330,-0.256301,121.259232,-0.050000,-0.010000,-0.300000,7.500000,7.500000
22.454000,1,-113.559608,0.641330,-0.256301,121.090126,-0.060000,0.000000,-0.280000,7.500000,7.500000
22.500999,1,-113.559608,0.641330,-0.256301,121.428337,-0.060000,-0.010000,-0.280000,7.500000,7.500000
22.549999,1,-113.559608,0.641330,-0.256301,121.428337,-0.050000,0.000000,-0.270000,7.500000,7.500000
22.600000,1,-113.559608,0.641330,-0.256301,121.259232,-0.060000,0.010000,-0.230000,7.500000,7.500000
22.649000,1,-113.559608,0.641330,-0.256301,121.679352,-0.070000,0.000000,-0.280000,7.500000,7.500000
22.698000,1,-113.559608,0.641330,-0.256301,121.259232,-0.060000,0.010000,-0.270000,7.500000,7.500000
22.747000,1,-113.559608,0.641330,-0.256301,121.763908,-0.060000,0.010000,-0.300000,7.500000,7.500000
22.794001,1,-113.559608,0.641330,-0.256301,121.763908,-0.050000,0.000000,-0.270000,7.500000,7.500000
22.841999,1,-113.559608,0.641330,-0.256301,121.597443,-0.050000,0.010000,-0.270000,7.500000,7.500000
22.891001,1,-113.559608,0.641330,-0.256301,121.259232,-0.040000,0.000000,-0.270000,7.500000,7.500000
22.940001,1,-113.559608,0.641330,-0.256301,121.512894,-0.070000,0.010000,-0.280000,7.500000,7.500000
22.990000,1,-113.559608,0.641330,-0.256301,121.008217,-0.070000,0.000000,-0.270000,7.500000,7.500000
23.039000,1,-113.559608,0.641330,-0.256301,121.259232,-0.070000,0.010000,-0.250000,7.500000,7.500000
23.087000,1,-113.559608,0.641330,-0.256301,121.428337,-0.070000,0.020000,-0.270000,7.500000,7.500000
23.134001,1,-113.559608,0.641330,-0.256301,121.512894,-0.070000,0.000000,-0.270000,7.500000,7.500000
23.181999,1,-113.559608,0.641330,-0.256301,121.259232,-0.060000,0.000000,-0.280000,7.500000,7.500000
23.231001,1,-113.559608,0.641330,-0.256301,121.512894,-0.040000,0.000000,-0.260000,7.500000,7.500000
23.278000,1,-113.559608,0.641330,-0.256301,120.923668,-0.060000,0.000000,-0.250000,7.500000,7.500000
23.325001,1,-113.559608,0.641330,-0.256301,120.839111,-0.050000,0.010000,-0.270000,7.500000,7.500000
23.372999,1,-113.559608,0.641330,-0.256301,121.512894,-0.050000,0.000000,-0.270000,7.500000,7.500000
23.422001,1,-113.559608,0.641330,-0.256301,120.839111,-0.040000,0.010000,-0.290000,7.500000,7.500000
23.472000,1,-113.559608,0.641330,-0.256301,122.017563,-0.040000,0.010000,-0.290000,7.500000,7.500000
23.521000,1,-113.559608,0.641330,-0.256301,121.512894,-0.060000,0.000000,-0.260000,7.500000,7.500000
23.570000,1,-113.559608,0.641330,-0.256301,121.090126,-0.060000,0.000000,-0.270000,7.500000,7.500000
23.618999,1,-113.559608,0.641330,-0.256301,120.923668,-0.070000,0.000000,-0.280000,7.500000,7.500000
23.666000,1,-113.559608,0.641330,-0.256301,121.174683,-0.040000,0.010000,-0.270000,7.500000,7.500000
23.714001,1,-113.559608,0.641330,-0.256301,121.259232,-0.060000,0.000000,-0.270000,7.500000,7.500000
23.763000,1,-113.559608,0.641330,-0.256301,121.512894,-0.040000,0.000000,-0.310000,7.500000,7.500000
23.812000,1,-113.559608,0.641330,-0.256301,120.670006,-0.050000,0.000000,-0.270000,7.500000,7.500000
23.862000,1,-113.559608,0.641330,-0.256301,120.670006,-0.050000,0.000000,-0.250000,7.500000,7.500000
23.910999,1,-113.559608,0.641330,-0.256301,120.839111,-0.060000,0.010000,-0.290000,7.500000,7.500000
23.959000,1,-113.559608,0.641330,-0.256301,121.090126,-0.070000,0.000000,-0.310000,7.500000,7.500000
24.006001,1,-113.559608,0.641330,-0.256301,121.090126,-0.060000,0.000000,-0.290000,7.500000,7.500000
24.054001,1,-113.559608,0.641330,-0.256301,121.090126,-0.050000,0.000000,-0.280000,7.500000,7.500000
24.103001,1,-113.559608,0.641330,-0.256301,121.008217,-0.070000,0.000000,-0.250000,7.500000,7.500000
24.153000,1,-113.559608,0.641330,-0.256301,121.090126,-0.060000,0.000000,-0.260000,7.500000,7.500000
24.202000,1,-113.559608,0.641330,-0.256301,121.259232,-0.060000,0.000000,-0.260000,7.500000,7.500000
24.252001,1,-113.559608,0.641330,-0.256301,121.259232,-0.050000,0.010000,-0.270000,7.500000,7.500000
24.299999,1,-113.559608,0.641330,-0.256301,121.428337,-0.050000,0.000000,-0.280000,7.500000,7.500000
24.347000,1,-113.559608,0.641330,-0.256301,121.343788,-0.050000,0.000000,-0.250000,7.500000,7.500000
24.395000,1,-113.559608,0.641330,-0.256301,120.923668,-0.060000,0.010000,-0.260000,7.500000,7.500000
24.444000,1,-113.559608,0.641330,-0.256301,120.923668,-0.070000,0.000000,-0.270000,7.500000,7.500000
24.493000,1,-113.559608,0.641330,-0.256301,120.754562,-0.070000,0.000000,-0.270000,7.500000,7.500000
24.542999,1,-113.559608,0.641330,-0.256301,121.428337,-0.060000,0.010000,-0.270000,7.500000,7.500000
24.591999,1,-113.559608,0.641330,-0.256301,121.259232,-0.060000,0.000000,-0.250000,7.500000,7.500000
24.641001,1,-113.559608,0.641330,-0.256301,120.754562,-0.040000,0.000000,-0.270000,7.500000,7.500000
24.688000,1,-113.559608,0.641330,-0.256301,121.259232,-0.060000,0.000000,-0.280000,7.500000,7.500000
24.736000,1,-113.559608,0.641330,-0.256301,120.923668,-0.060000,0.020000,-0.250000,7.500000,7.500000
24.784000,1,-113.559608,0.641330,-0.256301,121.259232,-0.060000,0.000000,-0.270000,7.500000,7.500000
24.830999,1,-113.559608,0.641330,-0.256301,121.343788,-0.060000,0.000000,-0.270000,7.500000,7.500000
24.879000,1,-113.559608,0.641330,-0.256301,121.008217,-0.060000,0.000000,-0.270000,7.500000,7.500000
24.926001,1,-113.559608,0.641330,-0.256301,121.343788,-0.060000,0.010000,-0.250000,7.500000,7.500000
24.975000,1,-113.559608,0.641330,-0.256301,121.597443,-0.060000,0.010000,-0.280000,7.500000,7.500000
25.025000,1,-113.559608,0.641330,-0.256301,121.090126,-0.060000,0.000000,-0.250000,7.500000,7.500000
25.073999,1,-113.559608,0.641330,-0.256301,121.259232,-0.070000,0.010000,-0.270000,7.500000,7.500000
25.124001,1,-113.559608,0.641330,-0.256301,121.090126,-0.060000,0.000000,-0.280000,7.500000,7.500000
25.173000,1,-113.559608,0.641330,-0.256301,121.512894,-0.050000,-0.010000,-0.260000,7.500000,7.500000
25.221001,1,-113.559608,0.641330,-0.256301,121.679352,-0.050000,-0.010000,-0.240000,7.500000,7.500000
25.268000,1,-113.559608,0.641330,-0.256301,121.597443,-0.060000,0.010000,-0.290000,7.500000,7.500000
25.316000,1,-113.559608,0.641330,-0.256301,121.174683,-0.040000,0.010000,-0.280000,7.500000,7.500000
25.365999,1,-113.559608,0.641330,-0.256301,121.428337,-0.060000,0.000000,-0.270000,7.500000,7.500000
25.415001,1,-113.559608,0.641330,-0.256301,121.679352,-0.070000,0.010000,-0.290000,7.500000,7.500000
25.464001,1,-113.559608,0.641330,-0.256301,120.585457,-0.070000,0.000000,-0.280000,7.500000,7.500000
25.513000,1,-113.559608,0.641330,-0.256301,121.343788,-0.040000,0.000000,-0.290000,7.500000,7.500000
25.562000,1,-113.559608,0.641330,-0.256301,121.343788,-0.070000,0.020000,-0.300000,7.500000,7.500000
25.608999,1,-113.559608,0.641330,-0.256301,121.428337,-0.070000,0.010000,-0.290000,7.500000,7.500000
25.657000,1,-113.559608,0.641330,-0.256301,121.512894,-0.060000,0.000000,-0.280000,7.500000,7.500000
25.705999,1,-113.559608,0.641330,-0.256301,121.428337,-0.050000,0.010000,-0.250000,7.500000,7.500000
25.756001,1,-113.559608,0.641330,-0.256301,121.428337,-0.050000,0.010000,-0.300000,7.500000,7.500000
25.805000,1,-113.559608,0.641330,-0.256301,121.597443,-0.060000,0.010000,-0.250000,7.500000,7.500000
25.854000,1,-113.559608,0.641330,-0.256301,121.428337,-0.060000,0.010000,-0.260000,7.500000,7.500000
25.902000,1,-113.559608,0.641330,-0.256301,121.597443,-0.070000,0.000000,-0.270000,7.500000,7.500000
25.948999,1,-113.559608,0.641330,-0.256301,121.343788,-0.070000,0.000000,-0.270000,7.500000,7.500000
25.997999,1,-113.559608,0.641330,-0.256301,121.597443,-0.060000,0.010000,-0.280000,7.500000,7.500000
26.047001,1,-113.559608,0.641330,-0.256301,121.090126,-0.070000,0.000000,-0.260000,7.500000,7.500000
26.096001,1,-113.559608,0.641330,-0.256301,121.512894,-0.060000,0.000000,-0.290000,7.500000,7.500000
26.146000,1,-113.559608,0.641330,-0.256301,120.670006,-0.050000,0.010000,-0.270000,7.500000,7.500000
26.195000,1,-113.559608,0.641330,-0.256301,121.174683,-0.070000,0.000000,-0.290000,7.500000,7.500000
26.243000,1,-113.559608,0.641330,-0.256301,121.090126,-0.070000,0.010000,-0.270000,7.500000,7.500000
26.290001,1,-113.559608,0.641330,-0.256301,120.923668,-0.060000,0.010000,-0.270000,7.500000,7.500000
26.337999,1,-113.559608,0.641330,-0.256301,120.839111,-0.060000,0.000000,-0.260000,7.500000,7.500000
26.386999,1,-113.559608,0.641330,-0.256301,120.923668,-0.050000,0.020000,-0.260000,7.500000,7.500000
26.434000,1,-113.559608,0.641330,-0.256301,121.090126,-0.070000,0.000000,-0.280000,7.500000,7.500000
26.481001,1,-113.559608,0.641330,-0.256301,121.174683,-0.060000,0.000000,-0.280000,7.500000,7.500000
26.528999,1,-113.559608,0.641330,-0.256301,121.090126,-0.050000,0.000000,-0.280000,7.500000,7.500000
26.577999,1,-113.559608,0.641330,-0.256301,121.343788,-0.050000,0.020000,-0.270000,7.500000,7.500000
26.628000,1,-113.559608,0.641330,-0.256301,121.259232,-0.030000,0.000000,-0.290000,7.500000,7.500000
26.677000,1,-113.559608,0.641330,-0.256301,121.428337,-0.050000,0.000000,-0.270000,7.500000,7.500000
26.726000,1,-113.559608,0.641330,-0.256301,120.923668,-0.070000,-0.010000,-0.290000,7.500000,7.500000
26.775000,1,-113.559608,0.641330,-0.256301,121.512894,-0.070000,0.000000,-0.270000,7.500000,7.500000
26.822001,1,-113.559608,0.641330,-0.256301,121.008217,-0.070000,0.000000,-0.270000,7.500000,7.500000
26.870001,1,-113.559608,0.641330,-0.256301,120.923668,-0.060000,0.010000,-0.290000,7.500000,7.500000
26.919001,1,-113.559608,0.641330,-0.256301,120.839111,-0.060000,0.000000,-0.280000,7.500000,7.500000
26.968000,1,-113.559608,0.641330,-0.256301,121.090126,-0.060000,0.010000,-0.270000,7.500000,7.500000
27.017000,1,-113.559608,0.641330,-0.256301,120.839111,-0.050000,-0.010000,-0.280000,7.500000,7.500000
27.066999,1,-113.559608,0.641330,-0.256301,121.343788,-0.080000,0.010000,-0.290000,7.500000,7.500000
27.115000,1,-113.559608,0.641330,-0.256301,120.923668,-0.070000,0.000000,-0.290000,7.500000,7.500000
27.162001,1,-113.559608,0.641330,-0.256301,120.923668,-0.060000,0.000000,-0.280000,7.500000,7.500000
27.209999,1,-113.559608,0.641330,-0.256301,121.428337,-0.040000,0.010000,-0.280000,7.500000,7.500000
