t_launch,launchFlag,yaw,pitch,roll,altitude,accel_x,accel_y,accel_z,TVCPitch,TVCYaw
6.016,0,162.484268,63.623379,-62.525536,108.885468,0.03,0.35,-0.19,0,0
8.018,0,163.015411,61.606651,-60.524296,109.221031,0.03,0.32,-0.01,0,0
10.062,0,163.336029,61.304893,-60.257511,108.885468,-0.06,0.02,0.1,0,0
12.104,0,168.08931,87.729553,-87.679764,109.390137,-0.29,0.06,1.06,0,0
14.106,0,168.463791,89.824097,-89.820465,108.885468,0.09,0.06,0.29,0,0
0.047,1,166.640244,88.162834,-88.111839,109.641159,-0.61,-0.59,-0.26,7.5,-7.5
0.096,1,167.067139,88.587723,-88.550995,109.136482,-0.18,-1.12,2.03,2.359079,-7.5
0.146,1,167.389862,90.745262,-90.763649,108.4627,0.09,-0.81,-0.03,-1.229683,-7.5
0.195,1,167.645187,91.558289,-91.595261,108.885468,0.33,0.95,-0.19,-2.602978,-7.5
0.244,1,167.792084,91.637794,-91.675766,108.885468,0.2,0.27,-0.15,-2.735785,-7.5
0.292,1,167.664734,91.520393,-91.55629,108.296242,0.07,0.16,-0.14,-2.571999,-7.5
0.339,1,167.85025,91.569412,-91.6054,109.221031,0.24,0.13,0.02,-2.689706,-7.5
0.387,1,167.992218,91.731026,-91.769676,108.380791,-0.14,0.81,0.25,-2.928318,-7.5
0.434,1,167.891586,91.359245,-91.390129,109.221031,-0.24,-0.19,0.17,-2.329515,-7.5
0.481,1,167.663864,90.622971,-90.637665,109.390137,-0.55,-0.71,0.19,-1.067665,-7.5
0.529,1,167.731522,90.529587,-90.541977,109.136482,-0.35,0.09,-0.21,-0.895885,-7.5
0.576,1,167.822479,90.687309,-90.703148,108.380791,0.24,0.05,0.11,-1.177931,-7.5
0.623,1,167.913284,90.832382,-90.85125,108.885468,-0.11,0.03,-0.18,-1.42656,-7.5
0.67,1,167.955109,90.858467,-90.877769,107.791565,-0.01,-0.08,0.27,-1.471267,-7.5
0.718,1,167.919067,90.719276,-90.735588,108.800911,0.22,-0.17,0.12,-1.216776,-7.5
0.768,1,167.974869,90.729744,-90.746063,108.380791,0.08,-0.2,-0.31,-1.204077,-7.5
0.817,1,168.000153,90.674019,-90.689034,108.716362,-0.1,0,0.27,-1.125887,-7.5
0.867,1,167.986923,90.455437,-90.46563,108.885468,-0.14,-0.01,0.24,-0.75147,-7.5
0.915,1,167.88739,90.404594,-90.413811,108.716362,-0.32,-0.15,0.01,-0.684439,-7.5
0.962,1,167.79187,90.240082,-90.245636,108.631805,-0.02,-0.06,0.14,-0.411459,-7.5
1.01,1,167.718018,90.117813,-90.12056,108.547256,0.27,-0.22,0.27,-0.199301,-7.5
1.059,1,167.781738,90.073051,-90.074738,108.716362,0.19,-0.1,0.1,-0.122026,-7.5
1.108,1,167.850555,90.172089,-90.176041,109.136482,0.21,-0.1,0.08,-0.287458,-7.5
1.157,1,167.972488,90.02282,-90.023323,109.136482,-0.13,-0.08,0.24,-0.038118,-7.5
1.206,1,168.003021,89.961174,-89.960304,108.716362,-0.17,-0.01,0.13,0.064855,-7.5
1.253,1,167.96785,89.893456,-89.89106,108.211685,-0.08,0.03,0.23,0.182599,-7.5
1.301,1,167.97049,89.860764,-89.857628,108.885468,-0.09,0.14,0.12,0.235542,-7.5
1.349,1,167.955811,89.864563,-89.861511,109.051926,-0.06,0.08,0.15,0.229114,-7.5
1.399,1,167.961166,89.601021,-89.592041,108.127136,0.05,-0.2,0.45,0.658315,-7.5
1.448,1,167.991455,89.489151,-89.477715,109.305588,0.07,0.05,0.2,0.853327,-7.5
1.498,1,167.966751,89.485367,-89.473778,108.296242,-0.04,0.15,0.15,0.849144,-7.5
1.545,1,167.940903,89.415855,-89.402649,108.885468,-0.01,0.09,0.19,1.001125,-7.5
1.592,1,167.866165,89.398636,-89.384895,108.04258,-0.09,-0.15,-0.05,1.030635,-7.5
1.64,1,167.806824,89.346382,-89.331238,108.4627,-0.12,0.17,0.31,1.105704,-7.5
1.687,1,167.808319,89.304001,-89.287933,108.800911,0.21,-0.11,0.53,1.192823,-7.5
1.734,1,167.867798,89.453308,-89.440819,107.876114,-0.15,0.21,-0.06,0.936938,-7.5
1.781,1,167.879272,89.420303,-89.407112,108.211685,-0.03,-0.02,0.36,0.993501,-7.5
1.83,1,167.872864,89.419838,-89.406609,108.296242,-0.25,0.3,0.34,0.969107,-7.5
1.877,1,167.870056,89.346199,-89.331245,108.885468,0,-0.2,0.08,1.120504,-7.5
1.924,1,167.853531,89.415146,-89.401711,108.380791,0,0.11,0.22,1.00234,-7.5
1.972,1,167.839676,89.496101,-89.48455,108.296242,0.01,0.08,0.12,0.852429,-7.5
2.021,1,167.857651,89.382172,-89.368019,108.970016,-0.04,0.05,0.19,1.032027,-7.5
2.071,1,167.85466,89.310837,-89.295082,108.380791,-0.01,0,0.25,1.137117,-7.5
2.12,1,167.873047,89.349403,-89.334564,108.631805,-0.01,-0.05,0.14,1.086765,-7.5
2.169,1,167.884079,89.306969,-89.291176,108.716362,-0.11,0.13,0.1,1.157645,-7.5
2.218,1,167.814102,89.116524,-89.09623,108.631805,0.07,-0.04,0.18,1.475765,-7.5
2.265,1,167.767715,89.022804,-89.00013,108.211685,0,-0.24,-0.08,1.674743,-7.5
2.312,1,167.821838,88.982613,-88.959198,108.296242,0.07,-0.02,0.28,1.74363,-7.5
2.361,1,167.866104,88.93853,-88.914322,108.127136,0.19,0.22,0.27,1.773088,-7.5
2.411,1,167.834076,88.813782,-88.786537,108.631805,-0.31,0.02,0.12,1.957261,-7.5
2.46,1,167.861404,88.842552,-88.816078,107.876114,0.16,-0.34,0.1,1.93341,-7.5
2.51,1,167.963501,89.105232,-89.085136,108.296242,0,0.28,0.05,1.476368,-7.5
2.557,1,167.983124,89.291779,-89.275917,108.380791,-0.15,0.02,-0.03,1.213772,-7.5
2.604,1,167.95668,89.334351,-89.319389,108.04258,-0.04,0.01,0.18,1.140807,-7.5
2.653,1,168.038635,89.405518,-89.392342,109.136482,0.3,-0.09,0.18,0.993028,-7.5
2.702,1,168.102509,89.637138,-89.629196,108.885468,-0.25,0.05,-0.1,0.606129,-7.5
2.751,1,168.171432,89.672005,-89.664902,109.136482,-0.1,0.28,0.18,0.547886,-7.5
2.801,1,168.213287,89.557884,-89.548386,108.631805,-0.41,-0.16,0.14,0.729489,-7.5
2.85,1,168.206131,89.55217,-89.542511,109.136482,0.34,0.19,-0.2,0.748061,-7.5
2.899,1,168.26265,89.617821,-89.60968,108.380791,0.03,0.04,0.12,0.638395,-7.5
2.946,1,168.415024,89.438164,-89.426445,108.4627,0.11,-0.01,0.63,0.96289,-7.5
2.993,1,168.450729,89.486565,-89.475967,108.970016,0.01,0.01,0.25,0.879942,-7.5
3.041,1,168.448547,89.451958,-89.440659,109.051926,-0.18,-0.02,0.12,0.927107,-7.5
3.088,1,168.517853,89.438774,-89.427284,108.380791,0.13,0,0.1,0.961843,-7.5
3.135,1,168.496429,89.290794,-89.276237,108.631805,-0.15,0.2,0.06,1.215459,-7.5
3.182,1,168.43425,89.032928,-89.012878,108.547256,-0.15,0.21,-0.01,1.657398,-7.5
3.229,1,168.277634,88.196114,-88.157608,108.4627,0.13,-0.09,0.23,3.091547,-7.5
3.276,1,168.031326,87.133255,-87.069672,108.800911,-0.03,-0.21,0.27,4.913117,-7.5
3.325,1,167.900818,86.438423,-86.357628,108.631805,0.34,-0.19,0.76,5.949285,-7.5
3.374,1,167.712677,86.917137,-86.845139,108.631805,-0.28,-0.39,0.13,5.149637,-7.5
3.423,1,167.801971,88.676689,-88.646126,108.970016,0.29,0.12,0.23,2.210469,-7.5
3.473,1,167.93718,90.066025,-90.067513,108.631805,-0.23,0.99,-1.04,-0.108941,-7.5
3.522,1,167.763077,88.648506,-88.617126,108.800911,0.11,-0.68,-0.04,2.257546,-7.5
3.571,1,167.79567,88.748947,-88.720062,108.4627,0.01,-0.14,0.39,2.089768,-7.5
3.618,1,167.857498,88.787827,-88.760117,108.631805,-0.22,-0.26,0.36,2.077461,-7.5
3.666,1,167.80394,88.492706,-88.457901,108.4627,0.32,-0.16,-0.01,2.549843,-7.5
3.715,1,167.885529,88.535736,-88.502426,108.716362,-0.04,-0.12,-0.68,2.445918,-7.5
3.764,1,168.037735,87.897018,-87.850471,108.547256,0.09,0.07,0.26,3.512836,-7.5
3.813,1,168.172302,88.159607,-88.119644,108.631805,0.11,0.38,-0.14,3.074207,-7.5
3.863,1,168.185196,88.188225,-88.149132,108.716362,-0.18,-0.31,0.1,2.989431,-7.5
3.911,1,168.407562,88.256409,-88.220039,108.716362,-0.04,0.16,0.04,2.949572,-7.5
3.958,1,168.610489,88.278893,-88.244415,108.885468,0.22,0.46,0.14,2.949688,-7.5
4.006,1,168.490112,88.157913,-88.120232,108.800911,-0.01,0.19,0.14,3.116193,-7.5
4.055,1,168.603271,88.1689,-88.132202,108.631805,-0.13,0.2,0.39,3.058693,-7.5
4.105,1,168.708313,88.027771,-87.988983,108.631805,0.01,-0.23,0.01,3.25417,-7.5
4.154,1,168.798584,87.960686,-87.921112,109.305588,-0.16,0.06,-0.01,3.406496,-7.5
4.203,1,168.811493,87.76857,-87.725357,108.800911,0.12,0.48,0.05,3.727387,-7.5
4.252,1,168.715942,87.581573,-87.534073,107.958031,-0.22,-0.37,0.36,4.03977,-7.5
4.299,1,168.814178,87.98159,-87.942566,108.800911,-0.05,0.18,0.25,3.459214,-7.5
4.347,1,168.88533,88.372971,-88.341904,108.800911,0.39,0.12,-0.3,2.752379,-7.5
4.394,1,168.841446,88.096878,-88.06031,108.380791,-0.24,-0.11,0.68,3.26163,-7.5
4.441,1,168.822189,87.90699,-87.86647,108.716362,0.03,-0.01,0.04,3.587066,-7.5
4.488,1,168.776489,87.549431,-87.501762,108.4627,-0.16,0.19,0.2,4.199862,-7.5
4.535,1,168.72168,87.357971,-87.305901,108.800911,-0.11,0.03,0.19,4.527992,-7.5
4.583,1,168.716949,87.064842,-87.007004,108.800911,0.25,-0.26,0.12,4.965287,-7.5
4.63,1,168.730438,86.766518,-86.703171,108.885468,-0.21,0.36,0.54,5.541644,-7.5
4.678,1,168.682602,86.825058,-86.762268,108.970016,-0.14,-0.06,-0.33,5.370954,-7.5
4.727,1,168.728012,86.709206,-86.644791,108.970016,0.01,0.12,0.07,5.496952,-7.5
4.776,1,168.728851,86.718658,-86.654137,108.716362,-0.09,0.11,-0.05,5.481194,-7.5
4.826,1,168.719101,86.447136,-86.377296,108.547256,0.01,-0.02,0.36,5.862212,-7.5
4.874,1,168.652557,86.474899,-86.404709,108.4627,0.11,-0.03,0.24,5.963306,-7.5
4.922,1,168.595596,86.608292,-86.540108,108.631805,0,0.07,0.21,5.73765,-7.5
4.969,1,168.482239,86.509323,-86.437569,108.380791,-0.1,0.4,0.43,5.982431,-7.5
5.018,1,168.356949,86.335136,-86.258202,108.716362,-0.23,-0.19,0.19,6.121798,-7.5
5.067,1,168.343658,86.180122,-86.100006,108.631805,0.15,0.18,-0.01,6.380772,-7.5
5.117,1,168.285599,85.912773,-85.826172,108.631805,-0.04,-0.06,0.32,6.743908,-7.5
5.166,1,168.224365,85.724709,-85.633072,109.051926,-0.18,0.17,0.24,7.141501,-7.5
5.214,1,168.12674,85.400429,-85.3004,109.136482,0.1,-0.03,0.23,7.5,-7.5
5.261,1,168.106781,85.200432,-85.095886,108.800911,-0.19,0.24,0.26,7.5,-7.5
5.309,1,168.231262,85.239525,-85.137817,109.051926,0.06,-0.2,0.27,7.5,-7.5
5.358,1,168.336365,85.71022,-85.620354,108.970016,-0.08,0.04,0.15,7.165702,-7.5
5.408,1,168.529572,86.404892,-86.331909,108.4627,-0.07,-0.02,-0.04,5.931914,-7.5
5.456,1,168.666016,86.593506,-86.525818,108.631805,-0.06,0.27,0.16,5.762663,-7.5
5.503,1,168.648422,86.378662,-86.30648,108.631805,0.17,0.23,-0.06,6.206363,-7.5
5.55,1,168.527679,86.135796,-86.057228,108.631805,-0.16,-0.05,0,6.622553,-7.5
5.597,1,168.407883,86.013626,-85.930901,108.631805,0.03,0.16,0.19,6.831972,-7.5
5.645,1,168.413269,86.090546,-86.0093,108.631805,-0.1,-0.19,0.18,6.613506,-7.5
5.692,1,168.370789,86.378075,-86.302559,108.380791,-0.04,0.14,0.13,6.207369,-7.5
5.739,1,168.339203,86.432724,-86.357727,108.547256,0.12,0.21,0.08,6.113709,-7.5
5.786,1,168.343719,86.696587,-86.627403,108.296242,0.15,-0.18,0.1,5.661493,-7.5
5.833,1,168.247238,86.815598,-86.747421,108.296242,-0.18,0.15,-0.03,5.457494,-7.5
5.881,1,168.1763,86.619667,-86.546654,108.631805,-0.18,0.12,0.07,5.718407,-7.5
5.93,1,168.104797,86.651939,-86.578499,108.380791,-0.12,-0.02,0.04,5.592643,-7.5
5.98,1,168.151199,86.727325,-86.656197,108.547256,-0.01,-0.01,0.14,5.3999,-7.5
6.029,1,168.247498,86.80452,-86.736343,108.380791,0.1,0.43,0.05,5.33777,-7.5
6.078,1,168.18898,86.519936,-86.445,108.547256,0.06,-0.08,0.14,5.813109,-7.5
6.128,1,168.16658,86.316925,-86.237366,108.211685,-0.01,-0.01,0.82,6.077095,-7.5
6.177,1,168.193558,86.296227,-86.216576,109.051926,-0.04,0.01,0.33,6.186793,-7.5
6.224,1,168.201462,86.305428,-86.226059,108.716362,-0.02,0.04,-0.16,6.331874,-7.5
6.272,1,168.249359,86.318321,-86.239655,108.547256,0.07,0.1,-0.06,6.228185,-7.5
6.321,1,168.268539,86.282394,-86.203384,109.051926,-0.11,0.24,-0.06,6.209898,-7.5
6.37,1,168.298355,86.11132,-86.028893,108.380791,-0.09,-0.34,0.61,6.495699,-7.5
6.419,1,168.43689,86.832283,-86.76683,108.4627,0.6,0.86,1.12,5.291363,-7.5
6.469,1,168.515091,87.172699,-87.11515,108.547256,0.22,-0.21,0.16,4.665063,-7.5
6.517,1,168.553833,87.144348,-87.086426,108.631805,-0.14,0.03,-0.12,4.830791,-7.5
6.564,1,168.571899,87.032928,-86.972954,108.716362,0.04,0.15,0.48,5.08506,-7.5
6.612,1,168.612305,87.048439,-86.98909,108.380791,-0.05,0.11,-0.28,4.993066,-7.5
6.661,1,168.641815,86.864388,-86.801956,108.296242,0.1,0.11,0.53,5.237766,-7.5
6.711,1,168.469437,86.680092,-86.611893,108.211685,0.07,-0.27,-0.24,5.477836,-7.5
6.76,1,168.47496,86.611069,-86.54158,107.876114,0.09,0.1,-0.15,5.66088,-7.5
6.809,1,168.558502,86.108322,-86.029694,108.127136,-0.01,0.09,0.44,6.500708,-7.5
6.858,1,168.469238,85.086678,-84.985931,108.296242,-0.1,-0.19,0.84,7.5,-7.5
6.905,1,168.508224,84.806824,-84.701096,108.380791,0.36,0.22,0.29,7.5,-7.5
6.952,1,168.513977,84.94001,-84.837013,108.631805,0.08,0.49,-0.28,7.5,-7.5
6.999,1,168.353516,83.962303,-83.83622,108.4627,0.06,-0.13,0.21,7.5,-7.5
7.046,1,168.234406,82.74334,-82.589256,107.876114,-0.06,0.53,0.48,7.5,-7.5
7.094,1,168.035721,81.932091,-81.755104,108.800911,0,0.07,0.71,7.5,-7.5
7.141,1,168.051544,81.911461,-81.734589,108.296242,0.08,-0.13,-0.06,7.5,-7.5
7.188,1,168.063766,82.101837,-81.929314,108.4627,-0.05,0.54,0.65,7.5,-7.5
7.235,1,168.166016,82.598335,-82.439682,108.716362,-0.13,0.2,0.94,7.5,-7.5
7.284,1,168.186661,82.459488,-82.298477,108.127136,0.22,0.26,-0.05,7.5,-7.5
7.333,1,168.023972,80.779243,-80.577904,108.631805,0.08,-0.26,0.14,7.5,-7.5
7.382,1,167.943008,79.578255,-79.348137,108.547256,-0.01,0.22,0.82,7.5,-7.5
7.432,1,167.87558,79.468536,-79.233429,108.547256,-0.13,0.02,0.54,7.5,-7.5
7.481,1,167.876663,79.947151,-79.723,108.800911,0.06,-0.13,-0.36,7.5,-7.5
7.53,1,167.79039,79.709091,-79.47583,108.296242,0.08,0.1,0.6,7.5,-7.5
7.577,1,167.779922,79.889366,-79.660065,108.800911,-0.32,-0.29,-0.28,7.5,-7.5
7.625,1,167.787277,79.953255,-79.725533,108.631805,0.05,0.41,0.53,7.5,-7.5
7.674,1,167.767532,80.451042,-80.233383,107.876114,-0.09,-0.27,0,7.5,-7.5
7.723,1,167.761765,80.524651,-80.308266,109.136482,0.2,0.26,0.35,7.5,-7.5
7.773,1,167.768692,81.211975,-81.011581,108.800911,-0.55,-0.03,-0.2,7.5,-7.5
7.822,1,167.771683,81.570198,-81.377403,108.631805,0.18,-0.12,-0.15,7.5,-7.5
7.871,1,167.734482,81.747787,-81.557541,108.970016,-0.4,0.14,0.59,7.5,-7.5
7.919,1,167.753036,82.116943,-81.935875,108.4627,0.16,-0.26,-0.39,7.5,-7.5
7.966,1,167.748215,82.082527,-81.900383,108.631805,0.16,0.2,0.31,7.5,-7.5
8.015,1,167.685028,82.031876,-81.846237,108.547256,-0.27,-0.35,-0.32,7.5,-7.5
8.064,1,167.68483,81.890167,-81.701775,109.051926,0.04,0.07,0.37,7.5,-7.5
8.114,1,167.69693,81.893532,-81.705147,108.296242,-0.1,0.04,0.22,7.5,-7.5
8.163,1,167.70253,81.808197,-81.618736,108.127136,0,0.13,-0.14,7.5,-7.5
8.211,1,167.695633,81.695755,-81.503212,108.380791,-0.04,0.02,0.23,7.5,-7.5
8.258,1,167.704544,81.836861,-81.647926,107.876114,-0.04,0.09,0.2,7.5,-7.5
8.305,1,167.707153,81.913155,-81.726105,108.04258,-0.17,0.31,0.13,7.5,-7.5
8.353,1,167.732162,81.841492,-81.653046,108.296242,0.1,-0.29,-0.15,7.5,-7.5
8.4,1,167.703476,81.628807,-81.435287,108.296242,0.01,0.11,0.33,7.5,-7.5
8.447,1,167.685928,81.702972,-81.510475,108.380791,0.02,-0.15,-0.45,7.5,-7.5
8.496,1,167.681458,81.59388,-81.398666,107.958031,-0.03,0.25,0.43,7.5,-7.5
8.543,1,167.695694,81.73465,-81.543175,108.4627,-0.14,0,0.05,7.5,-7.5
8.59,1,167.749771,81.571945,-81.378372,108.885468,0.01,-0.21,0.06,7.5,-7.5
8.638,1,167.747559,81.553879,-81.360046,108.547256,-0.12,0.2,0.17,7.5,-7.5
8.686,1,167.755585,81.770836,-81.581619,109.305588,0.14,-0.29,-0.02,7.5,-7.5
8.736,1,167.758057,81.836113,-81.648506,108.4627,0.12,0.39,0.14,7.5,-7.5
8.785,1,167.751999,81.696541,-81.505592,108.631805,-0.04,-0.04,0.26,7.5,-7.5
8.834,1,167.737579,81.472626,-81.276253,108.631805,0,0.08,-0.06,7.5,-7.5
8.884,1,167.71817,81.166115,-80.96257,108.800911,-0.05,-0.16,0.16,7.5,-7.5
8.932,1,167.713318,81.155853,-80.951942,108.380791,-0.21,0.13,0.52,7.5,-7.5
8.979,1,167.708633,81.132721,-80.928024,108.380791,0,0.06,-0.06,7.5,-7.5
9.028,1,167.703354,81.016479,-80.809143,108.547256,-0.2,0.12,0.21,7.5,-7.5
9.077,1,167.687439,80.545532,-80.327415,108.885468,-0.1,0.23,0.21,7.5,-7.5
9.126,1,167.61319,79.312462,-79.063141,109.051926,0.09,-0.03,0.06,7.5,-7.5
9.176,1,167.517578,77.66774,-77.378227,109.221031,-0.08,-0.11,0.28,7.5,-7.5
9.225,1,167.545074,77.140671,-76.841042,108.716362,0.42,0.08,0.4,7.5,-7.5
9.274,1,167.555405,77.797234,-77.513115,108.547256,-0.05,0.28,0.19,7.5,-7.5
9.321,1,167.640015,78.247253,-77.976456,109.051926,-0.01,0.7,0.23,7.5,-7.5
9.369,1,167.663834,78.518318,-78.254204,108.885468,0.14,-0.33,-0.01,7.5,-7.5
9.418,1,167.741989,79.15007,-78.903481,108.4627,0.02,0.21,-0.02,7.5,-7.5
9.467,1,167.764587,79.98848,-79.760818,108.547256,-0.01,0,0.38,7.5,-7.5
9.516,1,167.856796,81.490982,-81.299255,109.136482,-0.09,0.05,0.03,7.5,-7.5
9.566,1,168.02742,82.708092,-82.547974,108.716362,-0.06,-0.11,0.45,7.5,-7.5
9.614,1,168.07103,83.441635,-83.298088,108.547256,0.11,0,-0.2,7.5,-7.5
9.661,1,168.206741,83.961014,-83.832069,108.4627,0.01,0.26,-0.02,7.5,-7.5
9.709,1,168.252518,83.884506,-83.75486,109.136482,-0.04,-0.31,0.51,7.5,-7.5
9.757,1,168.327179,84.210419,-84.089272,108.885468,-0.22,0.23,0.12,7.5,-7.5
9.804,1,168.471161,84.280556,-84.163742,108.800911,0.13,0.35,0.06,7.5,-7.5
9.851,1,168.475159,84.410477,-84.296143,109.221031,0.02,0.07,0.27,7.5,-7.5
9.898,1,168.46283,84.415672,-84.301392,108.4627,0,-0.04,0,7.5,-7.5
9.945,1,168.489563,84.147942,-84.028465,108.631805,-0.13,-0.04,0.44,7.5,-7.5
9.992,1,168.449615,83.819733,-83.693481,108.547256,-0.22,0,-0.07,7.5,-7.5
10.04,1,168.46814,83.95813,-83.83461,108.296242,0.05,0.68,0.06,7.5,-7.5
10.089,1,168.43663,83.690277,-83.560814,108.4627,0.13,0.43,-0.36,7.5,-7.5
10.139,1,168.3013,83.413834,-83.27523,108.296242,-0.33,0.03,-0.06,7.5,-7.5
10.188,1,168.371719,84.049171,-83.925491,108.547256,0.11,0.78,-0.47,7.5,-7.5
10.238,1,168.421051,84.726234,-84.617348,108.4627,0.51,0.25,0.24,7.5,-7.5
10.287,1,168.397888,85.406029,-85.310921,109.136482,-0.06,-0.12,-0.57,7.5,-7.5
10.335,1,168.525864,85.394554,-85.300911,108.547256,0.12,0.55,0.27,7.5,-7.5
10.382,1,168.450546,85.911163,-85.826897,108.885468,0.02,0.16,0.45,7.007576,-7.5
10.43,1,168.421097,85.802856,-85.715744,108.800911,-0.05,-0.13,0,7.100137,-7.5
10.48,1,168.38414,85.564262,-85.471558,108.547256,-0.02,0.08,-0.14,7.319035,-7.5
10.529,1,168.309189,85.303108,-85.203979,108.885468,-0.01,0.17,0.4,7.5,-7.5
10.579,1,168.34053,85.231049,-85.131401,108.296242,-0.05,-0.25,0,7.5,-7.5
10.628,1,168.359802,85.483368,-85.38868,108.716362,0.12,0.41,-0.34,7.5,-7.5
10.676,1,168.238541,85.311386,-85.211151,108.04258,-0.12,-0.22,0.31,7.5,-7.5
10.723,1,168.300674,85.616348,-85.523804,108.127136,0.01,-0.12,0.27,7.5,-7.5
10.771,1,168.452271,85.893723,-85.809273,108.631805,0.1,1.09,0.15,6.946423,-7.5
10.821,1,168.49144,85.888718,-85.804611,108.631805,-0.18,-0.9,0.55,6.7836,-7.5
10.87,1,168.588531,86.203598,-86.127167,108.800911,-0.03,0.17,-0.06,6.341558,-7.5
10.919,1,168.49617,86.078293,-85.998276,108.547256,-0.22,-0.17,0,6.550869,-7.5
10.969,1,168.523987,86.10051,-86.021393,109.136482,-0.15,0.02,0.12,6.434144,-7.5
11.017,1,168.608063,86.233276,-86.157661,108.970016,0.11,0.19,0.17,6.372013,-7.5
11.064,1,168.600937,86.419052,-86.347099,109.390137,-0.17,-0.11,0.05,6.13714,-7.5
11.112,1,168.568848,86.697693,-86.630997,109.221031,-0.19,-0.32,0,5.586379,-7.5
11.159,1,168.660782,87.571198,-87.522903,109.136482,0.05,0.41,0.43,4.162558,-7.5
11.206,1,168.616653,88.668045,-88.641319,109.221031,0.04,-0.04,-0.21,2.282746,-7.5
11.253,1,168.703964,89.404289,-89.392517,108.885468,0.18,0.52,0.17,1.020948,-7.5
11.302,1,168.6586,89.833641,-89.83033,108.800911,0.11,-0.08,0.21,0.277888,-7.5
11.349,1,168.678986,89.984825,-89.984528,108.716362,-0.01,0.27,0.18,0.026007,-7.5
11.396,1,168.67067,90.382813,-90.390442,108.380791,0.07,0.15,-0.08,-0.656076,-7.5
11.444,1,168.571686,90.295753,-90.301735,108.885468,-0.04,0.14,0.02,-0.500314,-7.5
11.493,1,168.521286,90.004951,-90.005043,108.885468,0.15,0.13,0,-0.008271,-7.5
11.542,1,168.545502,89.340111,-89.326729,108.631805,-0.01,-0.13,0.19,1.102287,-7.5
11.592,1,168.580246,89.050903,-89.031761,108.547256,0.1,-0.11,0.17,1.566006,-7.5
11.641,1,168.529465,88.891342,-88.868774,108.716362,-0.07,0.29,-0.2,1.851916,-7.5
11.689,1,168.507584,88.462387,-88.431,108.716362,0.04,-0.11,0.05,2.601117,-7.5
11.736,1,168.55658,88.055725,-88.016319,108.885468,0.02,0.1,0.39,3.332159,-7.5
11.784,1,168.557373,88.013672,-87.973396,108.800911,-0.05,0.16,0.11,3.36019,-7.5
11.833,1,168.556412,88.135536,-88.097733,108.631805,-0.05,0.11,0.06,3.114424,-7.5
11.883,1,168.550797,87.907013,-87.864426,108.800911,0,0.14,0.11,3.453421,-7.5
11.932,1,168.521378,87.559555,-87.509781,108.631805,-0.01,-0.02,0.23,4.07655,-7.5
11.981,1,168.526337,87.557579,-87.507767,108.4627,0.12,0.23,0.21,4.079851,-7.5
12.029,1,168.520676,87.599472,-87.550491,108.970016,-0.22,-0.03,0.03,4.060876,-7.5
12.076,1,168.532593,87.564392,-87.514938,108.716362,0.25,0.23,0.33,4.174221,-7.5
12.125,1,168.510406,87.618759,-87.570099,108.296242,-0.24,-0.18,0.11,3.977655,-7.5
12.174,1,168.56424,87.75161,-87.706131,108.4627,0.1,0.35,0.11,3.755739,-7.5
12.223,1,168.526199,87.683685,-87.636566,108.380791,-0.06,0.1,0.35,3.869201,-7.5
12.272,1,168.524124,87.724182,-87.677689,108.211685,-0.04,0.07,-0.1,3.80151,-7.5
12.32,1,168.540359,87.667824,-87.620415,108.631805,0.14,0.04,0.13,3.945296,-7.5
12.367,1,168.513428,87.660942,-87.613235,109.221031,-0.08,0.1,0.12,4.008751,-7.5
12.415,1,168.491226,87.747559,-87.701363,108.380791,0.02,0.26,0.01,3.810364,-7.5
12.462,1,168.415573,87.72113,-87.673843,108.970016,-0.06,-0.02,0.39,3.905598,-7.5
12.509,1,168.374939,87.732071,-87.684692,108.970016,-0.07,0.25,0.3,3.886848,-7.5
12.556,1,168.388977,87.89135,-87.847351,108.800911,-0.11,0.11,0.08,3.613871,-7.5
12.603,1,168.333557,87.936234,-87.892654,109.051926,0.02,-0.23,0.05,3.536948,-7.5
12.65,1,168.288605,88.024574,-87.982651,108.800911,0.09,0.1,-0.15,3.385546,-7.5
12.697,1,168.259537,88.020462,-87.978157,109.136482,-0.15,-0.08,0.33,3.392594,-7.5
12.746,1,168.261749,88.238541,-88.200844,108.800911,0.05,-0.05,-0.09,2.942329,-7.5
12.795,1,168.246078,88.498764,-88.46653,108.800911,-0.01,0.19,0.26,2.507684,-7.5
12.845,1,168.238983,88.477615,-88.445007,108.631805,0,-0.02,0.18,2.511929,-7.5
12.894,1,168.222168,88.458534,-88.425438,109.136482,-0.09,0.16,-0.05,2.574884,-7.5
12.944,1,168.189789,88.144867,-88.104782,108.716362,0.11,0.04,0.34,3.060962,-7.5
12.992,1,168.208176,88.408058,-88.373779,109.221031,-0.18,0.17,-0.54,2.693056,-7.5
13.04,1,168.228958,88.317436,-88.281334,108.800911,0.05,-0.06,0.19,2.846325,-7.5
13.087,1,168.213181,88.311996,-88.275742,108.631805,0.09,0.14,-0.14,2.892953,-7.5
13.136,1,168.180756,88.112015,-88.071091,108.631805,-0.05,-0.02,-0.05,3.153714,-7.5
13.186,1,168.09761,87.575867,-87.522568,108.631805,0.01,-0.21,-0.1,3.999811,-7.5
13.235,1,168.076813,87.210709,-87.149452,108.4627,-0.19,0.28,-0.19,4.659267,-7.5
13.284,1,167.993652,87.259727,-87.198471,108.716362,-0.04,0.13,0.21,4.577332,-7.5
13.333,1,167.850525,87.356873,-87.296471,108.631805,0.12,0.32,-0.02,4.415113,-7.5
13.38,1,167.78212,87.435135,-87.375717,108.380791,0.17,0.06,0.06,4.395746,-7.5
13.428,1,167.752487,87.563934,-87.507324,108.547256,0.09,-0.08,0.53,4.120994,-7.5
13.477,1,167.758865,88.146492,-88.103386,109.136482,0.17,0.12,0.51,3.096123,-7.5
13.526,1,167.747421,88.764862,-88.736053,108.631805,-0.28,-0.43,0.29,2.06319,-7.5
13.576,1,167.904312,89.98822,-89.987953,109.305588,-0.26,-0.58,-0.23,0.019437,-7.5
13.625,1,167.959076,91.638596,-91.675514,108.211685,0.46,0.34,0.15,-2.737131,-7.5
13.674,1,167.753632,93.356865,-93.434792,108.127136,0.41,-0.02,1.04,-5.607349,-7.5
13.721,1,167.420181,95.625031,-95.762329,108.127136,-0.42,1.15,-0.14,-7.5,-7.5
13.768,1,167.217865,98.120056,-98.323647,108.547256,-0.15,0.69,0.05,-7.5,-7.5
13.815,1,166.899658,100.820686,-101.102837,108.380791,0.08,0.37,0.49,-7.5,-7.5
13.863,1,166.617279,101.959618,-102.283691,108.631805,0.16,0.12,0.67,-7.5,-7.5
13.91,1,167.075714,102.491295,-102.806572,108.970016,-0.33,-0.57,-0.51,-7.5,-7.5
13.957,1,167.25087,103.362411,-103.687386,108.380791,0.11,0.39,0.42,-7.5,-7.5
14.004,1,167.226135,104.979073,-105.342468,108.547256,-0.28,0.21,-0.41,-7.5,-7.5
14.051,1,167.167236,105.339417,-105.712021,108.380791,0.15,-0.02,0.41,-7.5,-7.5
14.099,1,167.295044,104.774826,-105.130203,108.547256,0.03,0.02,0.45,-7.5,-7.5
14.149,1,167.25383,104.703445,-105.058823,108.296242,-0.22,-0.77,0.05,-7.5,-7.5
14.198,1,167.087967,106.271492,-106.670998,108.380791,0.1,-0.41,0.86,-7.5,-7.5
14.248,1,166.993118,107.444565,-107.875465,108.970016,-0.26,0.92,-0.69,-7.5,-7.5
14.297,1,167.047806,107.32457,-107.748283,108.716362,0.17,0.09,0.93,-7.5,-7.5
14.346,1,166.838379,107.586296,-108.030388,109.051926,0.3,-0.66,0.39,-7.5,-7.5
14.394,1,166.350464,108.667839,-109.171661,109.136482,-0.01,-0.3,0.18,-7.5,-7.5
14.441,1,165.986862,109.631111,-110.183762,109.051926,-0.32,-0.28,-0.26,-7.5,-7.5
14.489,1,166.048676,110.109032,-110.66909,108.547256,0.3,-0.77,0.59,-7.5,-7.5
14.539,1,165.805145,111.027679,-111.626999,108.631805,-0.07,0.48,-0.25,-7.5,-7.5
14.588,1,165.454636,111.433174,-112.075851,108.716362,-0.29,-0.43,0.65,-7.5,-7.5
14.638,1,165.631653,111.396034,-112.020744,108.800911,-0.31,0.22,-0.02,-7.5,-7.5
14.687,1,165.690659,111.822144,-112.450859,108.547256,0.23,-0.84,0.41,-7.5,-7.5
14.735,1,165.887299,111.298035,-111.899529,109.390137,-0.17,0.51,0.1,-7.5,-7.5
14.782,1,166.668289,109.346298,-109.83979,109.136482,0.28,0.93,0.53,-7.5,-7.5
14.83,1,167.622375,106.225746,-106.590851,108.4627,-0.09,-0.73,-0.26,-7.5,-7.5
14.88,1,168.446411,102.568016,-102.820274,108.885468,0.44,-0.49,0.62,-7.5,-7.5
14.929,1,168.543427,100.842491,-101.057716,109.136482,-0.11,-0.39,0.09,-7.5,-7.5
14.979,1,168.584335,98.910027,-99.086891,108.800911,-0.21,0.05,-0.17,-7.5,-7.5
15.028,1,168.693878,97.18924,-97.329765,108.547256,-0.51,-1.04,-0.22,-7.5,-7.5
15.075,1,168.859955,95.905045,-96.017754,108.970016,0.19,0.44,0.79,-7.5,-7.5
15.123,1,169.574142,93.81353,-93.877258,109.136482,0.81,0.35,0.19,-6.451194,-7.5
15.17,1,169.777786,92.225212,-92.260979,108.631805,-0.31,-0.58,-0.26,-3.813638,-7.5
15.217,1,169.593048,91.024574,-91.041725,108.885468,0.38,0.61,0.91,-1.755948,-7.5
15.264,1,169.919281,89.872215,-89.870209,108.800911,0.55,-0.57,-0.76,0.219001,-7.5
15.311,1,169.885803,89.765221,-89.761513,108.970016,-0.56,-0.42,0.29,0.402372,-7.5
15.358,1,169.700302,90.170601,-90.173386,108.970016,-0.14,-0.24,0.18,-0.292381,-7.5
15.405,1,169.583832,91.278275,-91.299706,108.970016,0.17,0.34,-0.42,-2.190747,-7.5
15.453,1,169.48996,92.09671,-92.132515,109.051926,-0.02,0.42,0.06,-3.54692,-7.5
15.502,1,169.361618,92.290642,-92.330727,108.631805,-0.01,-0.22,0.65,-3.826317,-7.5
15.552,1,169.097244,93.018623,-93.074242,108.716362,-0.26,-0.46,0,-4.980717,-7.5
15.601,1,169.237701,93.337593,-93.39711,108.800911,0.2,0.4,-0.04,-5.575158,-7.5
15.65,1,169.264557,93.152695,-93.208679,108.547256,-0.02,-0.24,0.11,-5.266301,-7.5
15.7,1,169.240662,93.221863,-93.279266,108.716362,0.06,-0.11,1.14,-5.316061,-7.5
15.749,1,169.292816,93.411446,-93.471725,108.631805,0.08,-0.07,0.37,-5.698522,-7.5
15.796,1,169.21492,93.558411,-93.622414,108.380791,-0.08,0.03,-0.2,-6.098516,-7.5
15.843,1,169.286331,93.625114,-93.689156,108.4627,-0.07,0.28,0.17,-6.212756,-7.5
15.892,1,169.280197,93.595894,-93.659851,108.380791,-0.09,0.08,0.08,-6.006626,-7.5
15.942,1,169.284164,93.401428,-93.461678,108.716362,-0.06,-0.13,0.29,-5.612344,-7.5
15.991,1,169.274078,93.341255,-93.400627,108.296242,-0.04,0.11,0.07,-5.581275,-7.5
16.039,1,169.223511,93.39238,-93.453125,108.4627,0.03,-0.13,0.07,-5.738821,-7.5
16.086,1,169.328369,93.447945,-93.50856,108.4627,0.02,0.02,0.24,-5.909122,-7.5
16.134001,1,169.386124,93.60775,-93.670586,108.631805,0.1,0.15,-0.06,-6.103085,-7.5
16.183001,1,169.353043,93.693687,-93.758087,108.547256,-0.11,0.14,0.2,-6.169982,-7.5
16.233,1,169.29126,93.489944,-93.55159,108.296242,-0.03,-0.2,0.22,-5.758462,-7.5
16.282,1,169.310349,93.355827,-93.414894,108.296242,0.13,0.28,0.25,-5.605617,-7.5
16.330999,1,169.22435,93.170944,-93.22773,108.970016,-0.11,-0.11,0.08,-5.296785,-7.5
16.378,1,169.307022,93.266487,-93.324104,109.136482,0.07,-0.01,0.16,-5.598138,-7.5
16.426001,1,169.311813,93.386803,-93.446625,108.800911,0.05,0.17,0.2,-5.729317,-7.5
16.474001,1,169.306717,93.386803,-93.446686,108.716362,-0.09,0.06,0.02,-5.729317,-7.5
16.524,1,169.332947,93.390457,-93.450005,108.885468,-0.03,0.15,0.17,-5.594306,-7.5
16.570999,1,169.267349,93.321205,-93.38002,108.716362,0.01,-0.19,0.27,-5.692057,-7.5
16.618,1,169.240601,93.253754,-93.311661,109.390137,-0.04,0.05,0.14,-5.576315,-7.5
16.665001,1,169.225952,93.219124,-93.276718,108.885468,0.1,-0.12,0.13,-5.516966,-7.5
16.712,1,169.285553,93.240181,-93.29744,109.051926,0,0.04,0.05,-5.553194,-7.5
16.759001,1,169.294403,93.239372,-93.296837,108.970016,0.02,0.21,0.17,-5.551668,-7.5
16.806,1,169.271011,93.077339,-93.132126,108.211685,0.09,-0.09,0.11,-5.274107,-7.5
16.855,1,169.281693,93.085541,-93.140129,108.970016,-0.08,-0.05,0.13,-5.154126,-7.5
16.905001,1,169.351883,93.153061,-93.208099,109.051926,0.07,0.22,0.15,-5.202478,-7.5
16.954,1,169.337936,93.042946,-93.096336,108.970016,-0.07,-0.08,0.15,-5.082975,-7.5
17.003,1,169.338364,92.978317,-93.030495,108.800911,0.05,0.08,0.07,-4.975019,-7.5
17.052,1,169.340668,92.869202,-92.919556,108.716362,0.02,-0.08,-0.02,-4.79275,-7.5
17.099001,1,169.404129,92.587181,-92.631897,108.716362,0.05,-0.15,0.21,-4.433936,-7.5
17.146999,1,169.485077,92.178711,-92.215843,109.474693,-0.33,-0.17,0.09,-3.685727,-7.5
17.195999,1,169.554092,91.979538,-92.012756,109.221031,-0.13,0.11,0.14,-3.306645,-7.5
17.245001,1,169.588943,92.384552,-92.424347,109.390137,0,-0.37,0.06,-3.983091,-7.5
17.294001,1,169.742172,93.156967,-93.208336,108.631805,0.04,0.26,-0.05,-5.273438,-7.5
17.344,1,169.689194,93.591789,-93.650719,108.970016,-0.13,0,0.16,-5.926507,-7.5
17.392,1,169.69928,94.109207,-94.176064,108.631805,0.11,-0.42,0.39,-6.951379,-7.5
17.438999,1,169.791779,95.146225,-95.228264,108.885468,0.05,0.25,-0.24,-7.5,-7.5
17.487,1,169.880905,95.474022,-95.55986,108.547256,-0.11,0.18,-0.03,-7.5,-7.5
17.535999,1,169.99939,95.485512,-95.569412,108.211685,0.24,-0.07,0.24,-7.5,-7.5
17.586,1,170.118729,95.507278,-95.589821,108.380791,0,0.08,0.24,-7.5,-7.5
17.635,1,170.11792,95.497032,-95.578979,108.547256,-0.22,0.02,-0.2,-7.5,-7.5
17.683001,1,170.124756,95.487312,-95.569016,108.716362,0.13,-0.1,0.16,-7.5,-7.5
17.73,1,170.151047,95.635704,-95.719284,108.631805,0.07,0.06,0.11,-7.5,-7.5
17.777,1,170.20079,95.658844,-95.741669,108.547256,0.11,0.3,0.28,-7.5,-7.5
17.825001,1,170.167938,95.583443,-95.666245,108.380791,-0.01,-0.11,-0.12,-7.5,-7.5
17.872,1,170.129364,95.585709,-95.669083,108.296242,0,0.13,0.03,-7.5,-7.5
17.919001,1,170.050964,95.657898,-95.743362,108.4627,0,-0.01,0.66,-7.5,-7.5
17.966,1,169.915817,95.832565,-95.923866,108.970016,-0.19,-0.12,0.53,-7.5,-7.5
18.013,1,169.946381,95.844559,-95.934807,108.716362,0.04,0.07,0.01,-7.5,-7.5
18.059999,1,169.956192,95.80407,-95.894218,109.051926,0,-0.11,0.19,-7.5,-7.5
18.108999,1,169.961365,95.749077,-95.837677,108.885468,-0.11,0.28,0.14,-7.5,-7.5
18.158001,1,169.824554,95.638245,-95.727966,108.547256,0.05,-0.21,-0.01,-7.5,-7.5
18.207001,1,169.776672,95.6595,-95.750282,109.221031,-0.16,0.01,0.17,-7.5,-7.5
18.257,1,169.854156,95.617737,-95.706696,109.051926,0.13,0.04,0.1,-7.5,-7.5
18.306,1,169.777451,95.544922,-95.633942,108.885468,-0.2,-0.11,0,-7.5,-7.5
18.356001,1,169.846039,95.19828,-95.28051,108.885468,0.07,0.1,-0.04,-7.5,-7.5
18.403999,1,169.749878,94.833931,-94.911667,109.051926,-0.15,-0.12,0.07,-7.5,-7.5
18.451,1,169.734985,94.713806,-94.790123,108.716362,-0.2,-0.03,0.07,-7.5,-7.5
18.499001,1,169.741943,94.612274,-94.686722,108.547256,0.03,0.06,0.11,-7.5,-7.5
18.548,1,169.789841,94.280678,-94.349472,108.800911,0.03,0.15,-0.01,-7.150498,-7.5
18.598,1,169.767609,93.843231,-93.905212,108.800911,-0.02,-0.07,-0.43,-6.341391,-7.5
18.646999,1,169.723831,93.216095,-93.268494,108.885468,-0.06,-0.14,0.49,-5.372206,-7.5
18.695999,1,169.735504,92.943344,-92.990997,109.221031,0.01,-0.34,0.34,-4.916599,-7.5
18.745001,1,169.876617,92.956863,-93.003525,108.885468,0.27,0.19,0.06,-4.939065,-7.5
18.792,1,169.779144,92.983795,-93.031891,108.800911,-0.11,-0.15,0.16,-5.113786,-7.5
18.84,1,169.778198,92.973816,-93.021767,108.970016,-0.02,0.13,0.21,-5.030684,-7.5
18.889,1,169.795227,92.946312,-92.993622,108.716362,0.17,-0.09,-0.02,-4.921556,-7.5
18.938999,1,169.802185,92.914497,-92.961044,108.800911,-0.16,-0.13,0.05,-4.808965,-7.5
18.988001,1,169.887451,92.861427,-92.906723,108.800911,0.05,0.16,0.27,-4.779651,-7.5
19.035999,1,170.033005,92.711906,-92.753433,109.136482,-0.06,-0.09,0.14,-4.587734,-7.5
19.083,1,170.187729,92.599998,-92.638657,108.970016,-0.01,0.07,0.12,-4.455903,-7.5
19.131001,1,170.222183,92.542839,-92.580345,109.051926,0,-0.05,0.03,-4.301618,-7.5
19.18,1,170.237976,92.598145,-92.636162,108.885468,-0.06,-0.02,0.05,-4.339973,-7.5
19.226999,1,170.274933,92.517403,-92.554024,108.970016,0.11,0.13,0.13,-4.314458,-7.5
19.274,1,170.275192,92.364632,-92.399193,109.051926,0,-0.09,0.09,-4.052529,-7.5
19.322001,1,170.257385,92.233742,-92.266426,108.380791,0,-0.06,0.1,-3.77873,-7.5
19.368999,1,170.328262,92.144112,-92.175049,108.4627,-0.04,0.29,0.07,-3.674692,-7.5
19.416,1,170.255997,92.126114,-92.157082,109.136482,-0.03,-0.31,0.09,-3.643755,-7.5
19.462999,1,170.323456,92.260231,-92.292717,108.970016,-0.11,0.31,0.11,-3.873703,-7.5
19.511,1,170.345886,92.337845,-92.371269,109.136482,0.13,-0.02,-0.01,-3.954837,-7.5
19.561001,1,170.313187,92.251366,-92.283768,108.547256,-0.01,0.04,-0.02,-3.714702,-7.5
19.610001,1,170.338165,92.146683,-92.177559,108.716362,-0.08,-0.01,0.06,-3.585846,-7.5
19.66,1,170.354172,92.105202,-92.135239,108.716362,0.05,-0.19,0.07,-3.473615,-7.5
19.708,1,170.363098,92.093468,-92.123497,109.136482,-0.04,-0.12,0,-3.541434,-7.5
19.756001,1,170.473801,92.103127,-92.132568,108.547256,0.01,0.22,0.17,-3.557774,-7.5
19.802999,1,170.475281,92.072403,-92.101456,108.4627,0.11,0.15,-0.05,-3.551794,-7.5
19.851999,1,170.410141,92.013161,-92.041618,108.716362,-0.06,-0.07,0.02,-3.362809,-7.5
19.900999,1,170.363434,91.990005,-92.018478,108.800911,-0.12,-0.12,0.07,-3.32413,-7.5
19.950001,1,170.323517,91.937958,-91.965988,109.136482,0,0.19,0,-3.237112,-7.5
20,1,170.272293,91.925522,-91.953552,108.970016,0,-0.06,0.25,-3.17714,-7.5
20.048,1,170.252502,91.873535,-91.900986,108.547256,-0.13,0,0.03,-3.169383,-7.5
20.094999,1,170.251633,92.115952,-92.14695,108.716362,0.05,0.04,0,-3.62643,-7.5
20.143,1,170.261139,92.363266,-92.397911,108.885468,-0.05,0.01,0,-3.997841,-7.5
20.191999,1,170.292542,92.51474,-92.55117,108.800911,-0.05,0.29,0.06,-4.200654,-7.5
20.240999,1,170.254318,92.611855,-92.650185,108.631805,-0.05,-0.3,0.17,-4.362875,-7.5
20.291,1,170.349274,93.045593,-93.089043,108.380791,0.15,0.13,0.06,-5.025159,-7.5
20.34,1,170.375137,93.375999,-93.424004,108.4627,-0.31,0.01,-0.18,-5.639312,-7.5
20.388,1,170.239685,93.054222,-93.099052,108.800911,0.3,0.12,0.39,-5.166703,-7.5
20.434999,1,169.859634,92.763359,-92.807159,108.885468,-0.42,-0.19,-0.35,-4.735991,-7.5
20.483,1,169.936935,92.344757,-92.381371,108.970016,0.1,-0.43,0.47,-3.96653,-7.5
20.530001,1,170.202072,92.747887,-92.788528,108.800911,-0.02,0.11,0.26,-4.709355,-7.5
20.577,1,170.146286,93.225845,-93.274078,108.547256,-0.03,-0.08,0.02,-5.528625,-7.5
20.624001,1,169.843018,94.106575,-94.171928,108.296242,-0.26,0.06,-0.05,-7.037889,-7.5
20.671,1,169.427689,94.854439,-94.93766,109.305588,0.18,-0.65,0.49,-7.5,-7.5
20.719,1,169.071457,96.761513,-96.885071,109.390137,-0.09,0.11,0.06,-7.5,-7.5
20.766001,1,168.788452,99.479416,-99.659775,108.716362,0.39,-0.16,0.56,-7.5,-7.5
20.813999,1,168.814285,100.691147,-100.893532,108.716362,0.14,0.27,0.29,-7.5,-7.5
20.864,1,169.031128,101.501755,-101.710274,108.970016,-0.12,0.04,0.07,-7.5,-7.5
20.913,1,169.024063,102.943794,-103.176704,108.970016,0.01,-0.14,-0.12,-7.5,-7.5
20.962,1,169.108887,103.634735,-103.874512,108.211685,-0.44,0.34,-0.84,-7.5,-7.5
21.011999,1,169.558105,104.377243,-104.609352,108.4627,0.48,-0.45,1.16,-7.5,-7.5
21.059999,1,170.045944,104.768997,-104.984238,108.885468,0.05,0.51,-0.38,-7.5,-7.5
21.108,1,170.113663,105.35598,-105.577515,108.547256,0.2,0.03,0.34,-7.5,-7.5
21.155001,1,170.09198,105.339569,-105.559929,108.296242,-0.13,-0.12,-0.12,-7.5,-7.5
21.204,1,170.010437,105.393311,-105.618713,108.885468,-0.25,0,-0.38,-7.5,-7.5
21.254,1,170.096436,105.554222,-105.778587,108.211685,-0.11,0.32,-0.06,-7.5,-7.5
21.302999,1,170.195419,106.100319,-106.326462,108.380791,-0.05,-0.39,0.42,-7.5,-7.5
21.351999,1,170.342178,106.27536,-106.496239,108.547256,-0.05,0.39,0.12,-7.5,-7.5
21.400999,1,170.359741,105.397263,-105.607307,108.380791,0,-0.43,0.14,-7.5,-7.5
21.448,1,170.400925,104.770653,-104.970627,108.4627,-0.13,-0.33,-0.07,-7.5,-7.5
21.496,1,170.574524,104.444504,-104.633865,108.380791,0.16,0.09,0.05,-7.5,-7.5
21.545,1,170.600494,104.173355,-104.358246,108.296242,0.08,0.21,0.49,-7.5,-7.5
21.594,1,170.505096,103.624969,-103.807854,108.547256,0.12,-0.12,0.19,-7.5,-7.5
21.643,1,170.423126,103.022232,-103.20018,108.716362,-0.12,0.01,-0.27,-7.5,-7.5
21.691,1,170.330887,102.85923,-103.038918,108.970016,0.06,-0.16,0.41,-7.5,-7.5
21.738001,1,170.277145,102.86953,-103.051186,108.716362,-0.12,0.11,0.06,-7.5,-7.5
21.785999,1,170.132492,102.708328,-102.893158,108.800911,0.12,0.04,0.08,-7.5,-7.5
21.833,1,169.990448,102.639458,-102.829498,109.474693,-0.07,-0.33,0.25,-7.5,-7.5
21.881001,1,170.049072,102.683647,-102.871056,108.885468,0.03,0.11,0.04,-7.5,-7.5
21.927999,1,170.017944,102.547333,-102.733147,108.970016,-0.21,-0.05,0.32,-7.5,-7.5
21.976,1,169.976913,102.464622,-102.652252,109.305588,0.03,-0.17,-0.11,-7.5,-7.5
22.024,1,170.028564,102.497749,-102.683113,109.221031,-0.03,0.06,0.05,-7.5,-7.5
22.070999,1,170.043488,102.317894,-102.501472,109.221031,0.04,-0.07,0.31,-7.5,-7.5
22.118,1,170.0056,102.202484,-102.385567,108.800911,-0.02,-0.11,0.02,-7.5,-7.5
22.167,1,170.027054,102.162262,-102.342232,109.051926,0,0.03,0.44,-7.5,-7.5
22.216,1,169.940323,102.057922,-102.240166,108.970016,-0.02,-0.15,-0.26,-7.5,-7.5
22.266001,1,169.909653,101.857025,-102.037819,109.221031,0,-0.11,-0.06,-7.5,-7.5
22.315001,1,169.951279,101.784119,-101.962532,109.051926,0.01,0.06,0.23,-7.5,-7.5
22.364,1,169.926361,101.662064,-101.83905,109.221031,-0.09,-0.05,0.32,-7.5,-7.5
22.410999,1,169.877197,101.536545,-101.714348,109.051926,0.08,-0.02,0.09,-7.5,-7.5
22.458,1,169.854813,101.516533,-101.69503,109.051926,-0.06,-0.17,0.13,-7.5,-7.5
22.507,1,169.872223,101.498337,-101.676033,108.547256,-0.01,0.13,0.18,-7.5,-7.5
22.556999,1,169.853104,101.45472,-101.631134,109.051926,-0.04,0,-0.07,-7.5,-7.5
22.606001,1,169.820526,101.474632,-101.652313,108.885468,-0.06,-0.4,0.12,-7.5,-7.5
22.656,1,169.895767,101.549194,-101.725105,108.970016,0.03,0.2,0.2,-7.5,-7.5
22.705,1,169.880753,101.53286,-101.710976,108.631805,0.04,-0.21,0.17,-7.5,-7.5
22.752001,1,169.891464,101.541962,-101.718742,109.136482,-0.04,0.02,0.1,-7.5,-7.5
22.799,1,169.928452,101.500214,-101.674713,108.547256,0.02,0,0.3,-7.5,-7.5
22.848,1,169.982178,101.52784,-101.700737,108.800911,0.04,-0.01,0.03,-7.5,-7.5
22.898001,1,170.005676,101.433647,-101.605911,109.221031,-0.16,0.05,-0.16,-7.5,-7.5
22.947001,1,170.005859,101.248138,-101.417381,108.800911,0.05,-0.02,0.49,-7.5,-7.5
22.996,1,170.006439,101.180969,-101.348686,108.4627,0.06,0.03,0.02,-7.5,-7.5
23.044001,1,169.914276,101.115601,-101.285789,108.547256,-0.1,-0.4,0.18,-7.5,-7.5
23.091,1,169.888779,100.859146,-101.025833,108.4627,0.11,0.01,0.07,-7.5,-7.5
23.139,1,169.888428,100.801666,-100.967957,108.380791,0,-0.29,-0.05,-7.5,-7.5
23.186001,1,169.86467,100.809464,-100.976883,108.127136,-0.09,-0.16,0.16,-7.5,-7.5
23.233,1,169.864365,100.818436,-100.986,108.547256,-0.01,-0.01,0.64,-7.5,-7.5
23.280001,1,169.911362,100.898933,-101.065117,108.380791,0.12,-0.15,-0.08,-7.5,-7.5
23.329,1,169.9496,100.965652,-101.132202,108.4627,-0.06,0.09,0.06,-7.5,-7.5
23.375999,1,169.929794,100.844795,-101.010612,108.800911,0.03,0,0.05,-7.5,-7.5
23.423,1,169.937561,100.67765,-100.840309,108.716362,-0.05,-0.26,0.05,-7.5,-7.5
23.471001,1,169.987274,100.821877,-100.985153,109.051926,0,-0.31,0.23,-7.5,-7.5
23.52,1,170.145599,101.356697,-101.522163,109.221031,0.05,0.05,0.18,-7.5,-7.5
23.569,1,170.126465,101.915359,-102.089127,108.885468,-0.06,0.05,-0.12,-7.5,-7.5
23.618999,1,170.199753,102.229919,-102.405426,108.631805,0,0.09,-0.11,-7.5,-7.5
23.667999,1,170.309769,102.521721,-102.697784,108.547256,-0.02,-0.2,0.28,-7.5,-7.5
23.716999,1,170.448166,103.036682,-103.213615,108.211685,-0.04,-0.09,0.24,-7.5,-7.5
23.766001,1,170.604675,103.344353,-103.518585,108.716362,-0.05,0.43,-0.13,-7.5,-7.5
23.813,1,170.708939,103.352432,-103.523064,108.296242,0.12,0.01,0.11,-7.5,-7.5
23.861,1,170.716843,103.390244,-103.562065,108.4627,-0.03,-0.03,0.11,-7.5,-7.5
23.91,1,170.635529,103.407448,-103.582619,108.04258,-0.03,-0.07,0.25,-7.5,-7.5
23.959,1,170.683502,103.198479,-103.368629,108.716362,0.17,0.24,-0.16,-7.5,-7.5
24.009001,1,170.637878,103.071541,-103.242149,108.631805,-0.19,-0.14,0.19,-7.5,-7.5
24.056999,1,170.568817,103.104431,-103.278389,109.051926,0.09,-0.11,0.07,-7.5,-7.5
24.104,1,170.557098,103.273094,-103.449677,108.885468,0.03,0.15,0.23,-7.5,-7.5
24.152,1,170.465042,103.369606,-103.551018,108.716362,0.01,-0.16,-0.04,-7.5,-7.5
24.201,1,170.352631,103.395142,-103.58004,108.380791,0,0.05,0.29,-7.5,-7.5
24.25,1,170.406662,103.226799,-103.407333,108.380791,0.01,0.03,-0.25,-7.5,-7.5
24.299999,1,170.480972,103.189827,-103.367332,108.04258,-0.07,-0.17,0.52,-7.5,-7.5
24.349001,1,170.422134,103.25676,-103.436592,108.380791,0.02,0.19,0.08,-7.5,-7.5
24.396999,1,170.448441,103.225479,-103.404572,108.800911,0.18,-0.02,0.07,-7.5,-7.5
24.444,1,170.473679,103.39991,-103.580795,108.970016,-0.06,-0.06,0.34,-7.5,-7.5
24.492001,1,170.477982,103.681351,-103.864677,108.800911,0.03,0,0.1,-7.5,-7.5
24.539,1,170.512512,104.132721,-104.320335,108.04258,0.09,0,0.17,-7.5,-7.5
24.586,1,170.546997,104.411064,-104.601418,108.631805,-0.02,0.21,-0.04,-7.5,-7.5
24.632999,1,170.584152,104.433044,-104.621605,108.716362,-0.02,-0.09,-0.08,-7.5,-7.5
24.68,1,170.522278,104.574135,-104.767029,109.051926,-0.01,0.25,0.34,-7.5,-7.5
24.726999,1,170.470566,104.797188,-104.994583,108.211685,0.11,-0.1,-0.06,-7.5,-7.5
24.774,1,170.601944,104.622932,-104.812523,108.547256,-0.02,0.3,-0.31,-7.5,-7.5
24.823,1,170.574341,104.42971,-104.618019,108.885468,0,-0.3,0.31,-7.5,-7.5
24.872,1,170.578583,104.327667,-104.515381,108.547256,0.12,0.07,0.4,-7.5,-7.5
24.922001,1,170.603165,104.342804,-104.528725,108.547256,0.07,0.16,0.09,-7.5,-7.5
24.971001,1,170.516281,104.256332,-104.44574,108.970016,-0.08,-0.11,0.04,-7.5,-7.5
25.02,1,170.490814,104.299316,-104.490486,108.631805,-0.03,0.14,0.15,-7.5,-7.5
25.066999,1,170.43483,104.838699,-105.038734,108.631805,0.08,-0.17,0.14,-7.5,-7.5
25.114,1,170.32724,105.212776,-105.421288,108.547256,-0.05,0.24,-0.1,-7.5,-7.5
25.163,1,170.285767,105.010246,-105.218063,108.970016,0.05,0.15,0.21,-7.5,-7.5
25.212999,1,170.141083,105.014236,-105.229187,108.211685,-0.04,-0.31,0.23,-7.5,-7.5
25.261999,1,170.172455,104.921616,-105.133286,108.296242,-0.1,0.09,0.1,-7.5,-7.5
25.311001,1,170.140884,104.75209,-104.964684,109.051926,0.12,-0.26,0.21,-7.5,-7.5
25.361,1,170.143433,104.784233,-104.996246,108.800911,-0.04,0.04,0.02,-7.5,-7.5
25.408001,1,170.227509,104.87455,-105.083801,108.631805,0.02,0.02,0.07,-7.5,-7.5
25.455,1,170.225403,104.861328,-105.071213,108.296242,0,-0.2,0.13,-7.5,-7.5
25.504,1,170.273148,104.868752,-105.07547,108.547256,0.11,0,0.2,-7.5,-7.5
25.552999,1,170.263458,104.8274,-105.033585,108.547256,0.14,-0.02,0.1,-7.5,-7.5
25.601999,1,170.23526,104.735222,-104.94207,108.631805,-0.08,0.09,0.2,-7.5,-7.5
25.650999,1,170.257629,104.695618,-104.901711,108.380791,0.04,-0.13,0,-7.5,-7.5
25.698999,1,170.261917,104.67305,-104.879463,108.296242,-0.08,0.05,0.09,-7.5,-7.5
25.746,1,170.238297,104.55088,-104.755066,108.800911,0.12,-0.02,0.09,-7.5,-7.5
25.795,1,170.241226,104.526436,-104.729851,108.631805,-0.07,-0.03,0.08,-7.5,-7.5
25.841999,1,170.235489,104.526436,-104.731499,108.547256,-0.01,-0.24,0.13,-7.5,-7.5
25.889,1,170.22818,104.642998,-104.849602,108.970016,-0.08,0.1,0.12,-7.5,-7.5
25.936001,1,170.232925,104.729652,-104.937447,108.800911,0.05,0.17,-0.06,-7.5,-7.5
25.983,1,170.246979,104.692146,-104.897804,108.631805,0,-0.05,0.12,-7.5,-7.5
26.030001,1,170.200851,104.679153,-104.887276,108.716362,-0.13,0.07,0.48,-7.5,-7.5
26.077,1,170.191498,104.873131,-105.084183,108.716362,0.04,0,-0.2,-7.5,-7.5
26.125999,1,170.1651,105.081284,-105.295303,108.800911,-0.01,-0.03,0.07,-7.5,-7.5
26.174999,1,170.144241,105.094566,-105.308922,108.885468,-0.09,0.04,0.08,-7.5,-7.5
26.225,1,170.165115,105.011368,-105.224396,108.970016,-0.07,0.05,0.12,-7.5,-7.5
26.274,1,170.154419,104.973534,-105.186951,108.631805,0.03,-0.14,-0.01,-7.5,-7.5
26.323,1,170.168732,104.998108,-105.21154,109.051926,0.01,0.16,0.11,-7.5,-7.5
26.371,1,170.191269,104.804161,-105.012688,108.716362,-0.15,-0.26,0.12,-7.5,-7.5
26.417999,1,170.218994,104.751549,-104.959587,108.296242,0.14,0.09,0.17,-7.5,-7.5
26.466,1,170.287323,104.802223,-105.008354,108.885468,0,-0.01,0,-7.5,-7.5
26.516001,1,170.311172,104.932411,-105.139511,108.800911,-0.09,-0.13,0.21,-7.5,-7.5
26.565001,1,170.350571,104.794495,-104.99765,109.305588,-0.05,0.14,-0.1,-7.5,-7.5
26.614,1,170.505966,104.602104,-104.796021,109.221031,0.22,-0.1,0.13,-7.5,-7.5
26.663,1,170.527405,104.594238,-104.787041,109.051926,-0.13,0.11,0.07,-7.5,-7.5
26.711,1,170.554138,104.378036,-104.567764,109.051926,0.18,-0.06,0.11,-7.5,-7.5
26.757999,1,170.551376,104.018639,-104.20488,108.970016,0.07,0.04,-0.17,-7.5,-7.5
26.806999,1,170.51593,103.82663,-104.011398,108.885468,-0.12,-0.18,0.12,-7.5,-7.5
26.856001,1,170.498459,103.785706,-103.968796,108.716362,-0.12,-0.23,0.12,-7.5,-7.5
26.906,1,170.603012,103.794708,-103.975128,108.716362,0.12,0.42,-0.24,-7.5,-7.5
26.955,1,170.559143,103.8638,-104.047073,109.051926,0.11,-0.05,0.03,-7.5,-7.5
27.004,1,170.499802,103.906807,-104.091835,109.221031,-0.04,-0.18,0.41,-7.5,-7.5
27.052999,1,170.474319,104.024185,-104.21138,109.051926,-0.02,0,-0.08,-7.5,-7.5
27.1,1,170.425354,104.222572,-104.416412,108.547256,-0.09,-0.11,0.06,-7.5,-7.5
27.146999,1,170.398682,104.604012,-104.802155,108.4627,-0.1,0.15,0.22,-7.5,-7.5
27.194,1,170.312103,105.440948,-105.654709,108.631805,-0.07,0.57,-0.09,-7.5,-7.5
27.240999,1,169.639786,106.435867,-106.693634,108.547256,0.07,-0.28,0.53,-7.5,-7.5
27.289,1,168.980057,106.730057,-107.026421,108.631805,-0.29,0.07,0.58,-7.5,-7.5
27.336,1,168.263184,106.45694,-106.789207,108.800911,-0.17,-1.09,-0.69,-7.5,-7.5
27.382999,1,167.480759,106.841461,-107.227898,108.800911,0.02,-0.2,-0.31,-7.5,-7.5
27.43,1,167.065491,107.215034,-107.636108,108.970016,0,0.09,0.27,-7.5,-7.5
27.479,1,166.883011,107.538895,-107.977844,108.547256,-0.21,-0.22,-0.07,-7.5,-7.5
27.528,1,166.894455,107.58062,-108.019104,108.970016,0.06,-0.05,0.36,-7.5,-7.5
27.577,1,166.633713,108.43956,-108.916031,109.136482,0.09,-0.05,0.2,-7.5,-7.5
27.627001,1,166.549896,108.938339,-109.434441,109.136482,0.17,0.47,0,-7.5,-7.5
27.676001,1,166.569809,108.683983,-109.171288,108.970016,0.08,-0.17,0.06,-7.5,-7.5
27.725,1,166.552689,108.628128,-109.117203,108.631805,-0.02,-0.1,0.29,-7.5,-7.5
27.773001,1,166.581085,108.592888,-109.077728,108.631805,-0.02,0.18,-0.01,-7.5,-7.5
27.82,1,166.601395,108.375305,-108.851486,108.885468,0.01,-0.17,0.22,-7.5,-7.5
27.868999,1,166.615112,108.291252,-108.766281,108.885468,0.08,-0.09,0,-7.5,-7.5
27.917999,1,166.664673,108.225334,-108.696655,108.631805,-0.19,0.23,-0.07,-7.5,-7.5
27.968,1,166.671585,107.924965,-108.389374,108.547256,0.04,-0.2,0.09,-7.5,-7.5
28.017,1,166.742691,107.548409,-107.999275,108.380791,0.22,-0.18,-0.03,-7.5,-7.5
28.063999,1,166.825958,107.401329,-107.843246,108.547256,-0.02,0.05,-0.02,-7.5,-7.5
28.111,1,166.894165,107.32692,-107.762161,108.631805,-0.17,-0.01,0.21,-7.5,-7.5
28.16,1,166.895569,107.246002,-107.678268,108.4627,0.08,-0.07,-0.03,-7.5,-7.5
28.209,1,166.890518,107.287766,-107.721657,108.04258,0.4,-0.13,-0.02,-7.5,-7.5
28.257999,1,166.774811,107.621803,-108.071007,108.211685,-0.19,0.03,0.11,-7.5,-7.5
28.308001,1,166.726547,107.896889,-108.355873,108.296242,0.06,0.16,0.25,-7.5,-7.5
28.357,1,166.649307,108.030167,-108.498146,109.051926,-0.19,-0.35,-0.03,-7.5,-7.5
28.403999,1,166.530884,108.900253,-109.394928,109.305588,-0.02,-0.14,0.14,-7.5,-7.5
28.451,1,166.261887,110.126274,-110.669312,108.631805,0.1,0.33,0.15,-7.5,-7.5
28.499001,1,165.997833,110.918571,-111.500008,108.885468,0.16,0,-0.13,-7.5,-7.5
28.546,1,165.67308,111.704567,-112.33503,109.136482,-0.19,-0.04,0.17,-7.5,-7.5
28.593,1,165.436493,112.321976,-112.989731,109.136482,-0.04,-0.11,0.35,-7.5,-7.5
28.639999,1,165.216919,113.048729,-113.749939,108.885468,0.19,-0.31,-0.07,-7.5,-7.5
28.687,1,164.889862,114.603111,-115.374046,108.885468,0.22,-0.24,0.03,-7.5,-7.5
28.733999,1,164.12883,116.531029,-117.429527,109.221031,-0.18,0.39,0.28,-7.5,-7.5
28.782,1,163.274139,118.163193,-119.207642,108.970016,-0.39,-0.04,-0.43,-7.5,-7.5
28.830999,1,163.403305,118.829712,-119.874619,108.296242,0.12,0.38,0.5,-7.5,-7.5
28.881001,1,163.586212,118.956497,-119.975227,109.051926,-0.22,0.87,0.31,-7.5,-7.5
28.93,1,163.350433,118.844017,-119.892624,108.211685,0.12,-0.94,0.48,-7.5,-7.5
28.98,1,164.034378,118.198463,-119.147865,108.547256,0,0.21,-0.08,-7.5,-7.5
29.028,1,164.26001,117.673523,-118.582924,108.380791,0.21,-0.02,0.14,-7.5,-7.5
29.075001,1,164.212509,117.326591,-118.234474,109.390137,-0.14,-0.36,0.14,-7.5,-7.5
29.122999,1,164.428192,117.086021,-117.962631,108.800911,0.03,0.37,-0.06,-7.5,-7.5
29.172001,1,164.646088,116.464005,-117.306801,109.221031,-0.05,0.25,-0.1,-7.5,-7.5
29.221001,1,164.815491,115.249611,-116.043709,109.390137,-0.29,-0.13,-1.21,-7.5,-7.5
29.27,1,165.190689,114.277298,-115.010185,109.810265,0.23,-0.16,0.02,-7.5,-7.5
29.32,1,165.427872,113.563774,-114.257294,109.221031,0.1,0.31,-0.05,-7.5,-7.5
29.368,1,165.500305,113.054955,-113.728607,109.474693,-0.25,-0.17,-0.24,-7.5,-7.5
29.416,1,166.250015,110.753754,-111.311195,109.474693,-0.43,-0.15,0.19,-7.5,-7.5
29.462999,1,166.800079,108.954956,-109.431648,109.051926,0.1,-0.17,-0.04,-7.5,-7.5
29.511999,1,167.31517,107.215233,-107.620308,109.390137,-0.22,-0.28,0.33,-7.5,-7.5
29.562,1,167.654022,105.377487,-105.723228,108.380791,0.04,0.32,-0.04,-7.5,-7.5
29.611,1,167.967499,104.162918,-104.468178,108.970016,-0.21,-0.83,0.02,-7.5,-7.5
29.660999,1,168.124695,103.183426,-103.462013,109.221031,0.06,0.41,0.5,-7.5,-7.5
29.709,1,168.255203,102.060707,-102.310867,109.305588,0.09,0.49,-0.41,-7.5,-7.5
29.756001,1,168.192307,101.727264,-101.972725,109.136482,0.34,-0.26,0.1,-7.5,-7.5
29.804001,1,168.166382,101.679665,-101.926674,108.4627,0.07,0.38,-0.16,-7.5,-7.5
29.851,1,168.10733,101.024529,-101.25972,109.136482,-0.16,-0.58,0.15,-7.5,-7.5
29.898001,1,168.123306,100.411522,-100.634384,109.136482,-0.15,0.08,0.08,-7.5,-7.5
29.945,1,168.240723,99.561958,-99.763176,109.305588,0.1,0.27,-0.23,-7.5,-7.5
29.992001,1,168.152435,99.306946,-99.505051,109.136482,0.04,-0.4,0.31,-7.5,-7.5
30.040001,1,168.098877,99.470238,-99.67485,108.716362,0.16,0.24,-0.17,-7.5,-7.5
30.087,1,168.106949,99.626976,-99.834259,109.641159,0.01,-0.17,0.4,-7.5,-7.5
30.135,1,168.061966,99.755669,-99.967384,108.885468,-0.05,0.17,0.03,-7.5,-7.5
32.167999,1,170.059189,98.856857,-98.989563,108.885468,0,-0.31,0.05,-7.5,-7.5
34.191002,1,171.095688,99.746422,-99.862785,108.800911,0.01,0.05,0.1,-7.5,-7.5
36.224998,1,172.019943,100.420921,-100.519783,109.051926,0.06,-0.05,-0.03,-7.5,-7.5
38.250999,1,172.091431,101.449158,-101.555473,108.547256,-0.02,-0.21,0.04,-7.5,-7.5
40.268002,0,172.955307,100.839241,-100.92038,108.800911,0.11,0.01,0.13,0,0
42.310001,0,173.779099,105.249443,-105.336266,108.970016,-0.11,-0.21,-0.02,0,0
44.355,0,174.629059,103.651321,-103.708679,108.4627,0.04,-0.15,0.04,0,0
46.398998,0,174.00383,100.642258,-100.699684,108.800911,-0.01,0.03,-0.38,0,0
48.400002,0,165.204956,95.092278,-95.265976,108.800911,0.07,-0.18,-0.06,0,0
50.436001,0,167.179825,95.053802,-95.182388,109.305588,-0.19,0.06,0.08,0,0
0.046,1,168.139832,89.390686,-89.377411,109.136482,-0.93,-0.05,-0.54,3.442624,-7.5
0.093,1,168.268738,86.207703,-86.12719,108.970016,-0.16,-0.6,0.16,6.499352,-7.5
0.14,1,168.30809,81.594574,-81.419441,109.305588,0.39,-0.07,0.31,7.5,-7.5
0.187,1,168.087219,73.642784,-73.302612,109.305588,0.19,0.64,-0.7,7.5,-7.5
0.235,1,167.170517,66.839256,-66.309982,109.221031,0.49,0.5,-0.15,7.5,-7.5
0.282,1,165.204834,60.394482,-59.556671,108.631805,-0.43,0.81,0.03,7.5,-7.5
0.329,1,163.950714,58.4095,-57.384201,109.725708,-0.3,-0.55,1.06,7.5,-7.5
0.377,1,164.019989,56.346165,-55.29644,109.221031,0.39,-0.42,0.46,7.5,-7.5
0.426,1,164.396194,53.212086,-52.174503,109.390137,0.18,-0.7,0.18,7.5,-7.5
0.475,1,164.509857,48.247253,-47.19173,109.136482,0.13,-0.39,-0.74,7.5,-7.5
0.525,1,163.864792,42.694901,-41.54945,109.390137,-0.09,-0.12,0.35,7.5,-7.5
0.574,1,162.106323,37.239586,-35.880577,109.051926,-0.21,0.42,0.2,7.5,-7.5
0.623,1,159.12532,31.267839,-29.570387,109.305588,-0.48,0.76,-0.27,7.5,-7.5
0.672,1,155.073441,27.029922,-24.827579,109.221031,-0.63,0.68,-0.1,7.5,-7.5
0.719,1,150.549225,24.400143,-21.553961,109.136482,-0.34,0.31,-0.15,7.5,-7.5
0.767,1,145.9198,22.484997,-18.922768,108.970016,-0.16,-0.04,-0.28,7.5,-7.5
0.816,1,140.363724,20.599068,-16.143297,108.885468,0.23,0,-0.51,7.5,-7.5
0.865,1,139.134567,20.807039,-16.033382,109.136482,0.24,1.15,-1.7,7.5,-7.5
0.915,1,143.14859,24.010237,-19.617998,108.885468,-0.33,-0.28,0.35,7.5,-7.5
0.964,1,142.970612,25.186687,-20.577948,108.970016,0.46,-0.6,0.25,7.5,-7.5
1.013,1,143.381866,26.131586,-21.492022,109.390137,0.13,-0.2,-0.01,7.5,-7.5
1.06,1,144.696823,27.548761,-23.060711,109.221031,-0.09,0.01,-0.23,7.5,-7.5
1.108,1,145.327209,28.304815,-23.889687,109.051926,-0.18,0.1,-0.18,7.5,-7.5
1.157,1,145.696396,28.846975,-24.465666,109.390137,-0.1,-0.16,0.06,7.5,-7.5
1.206,1,145.620178,29.025915,-24.606314,109.051926,0.24,0,-1.13,7.5,-7.5
1.256,1,145.94664,30.190432,-25.73579,108.970016,-0.13,-0.36,0.25,7.5,-7.5
1.304,1,146.115311,30.441271,-26.005861,108.970016,0.24,-0.09,0.14,7.5,-7.5
1.352,1,146.597931,30.789455,-26.447638,108.800911,-0.03,0,-0.23,7.5,-7.5
1.399,1,146.733719,30.948671,-26.627556,109.051926,0.22,-0.22,-0.62,7.5,-7.5
1.446,1,146.687408,31.338737,-26.970383,108.970016,-0.04,0.2,-0.1,7.5,-7.5
1.493,1,146.746353,31.940285,-27.534279,108.800911,-0.04,-0.1,0.32,7.5,-7.5
1.54,1,147.361893,32.103275,-27.848072,108.800911,0.15,0.1,-0.84,7.5,-7.5
1.588,1,147.307236,32.190239,-27.913258,108.885468,0.08,0.06,-0.22,7.5,-7.5
1.635,1,146.909531,32.383587,-27.984667,108.970016,0.16,0.08,0.3,7.5,-7.5
1.682,1,146.716888,32.573757,-28.105549,109.051926,-0.13,-0.55,0.35,7.5,-7.5
1.73,1,146.987762,32.4925,-28.104712,109.221031,-0.13,0.48,-0.38,7.5,-7.5
1.779,1,147.356339,32.572693,-28.278357,109.221031,0.24,0.05,-0.48,7.5,-7.5
1.828,1,147.285706,32.757702,-28.428972,109.221031,-0.04,-0.04,-0.34,7.5,-7.5
1.878,1,147.172058,33.293358,-28.890905,109.556602,0.05,-0.12,-0.06,7.5,-7.5
1.927,1,147.374329,34.329651,-29.904909,109.136482,-0.17,-0.07,0.42,7.5,-7.5
1.976,1,147.615326,34.710629,-30.326448,108.970016,0.08,-0.23,-0.55,7.5,-7.5
2.025,1,147.346878,34.753216,-30.291014,109.390137,-0.04,0.1,0.08,7.5,-7.5
2.072,1,147.251968,34.695061,-30.210573,108.885468,-0.01,0.32,-0.06,7.5,-7.5
2.12,1,147.19104,34.819565,-30.309484,109.305588,0.11,-0.34,-0.29,7.5,-7.5
2.169,1,146.723633,34.619736,-29.992523,109.556602,0,-0.03,0.11,7.5,-7.5
2.218,1,146.566681,34.401695,-29.746492,109.136482,0,0.23,0.01,7.5,-7.5
2.268,1,146.525772,34.33955,-29.677618,109.221031,0.09,-0.09,-0.39,7.5,-7.5
2.317,1,146.258865,34.127419,-29.405437,109.390137,-0.15,0.03,0.1,7.5,-7.5
2.365,1,146.206192,33.99823,-29.271606,109.136482,0.09,0.11,-0.13,7.5,-7.5
2.412,1,146.19313,34.013813,-29.281097,108.547256,0,-0.04,0.01,7.5,-7.5
2.46,1,146.168732,34.008755,-29.270695,108.547256,0,-0.08,-0.04,7.5,-7.5
2.51,1,146.208328,34.034496,-29.305532,109.136482,0.11,0,-0.21,7.5,-7.5
2.559,1,146.228363,33.987888,-29.26807,109.136482,0.08,-0.02,-0.14,7.5,-7.5
2.608,1,146.277176,34.02916,-29.319292,109.641159,0.06,-0.07,-0.16,7.5,-7.5
2.657,1,146.162399,33.988125,-29.249491,108.885468,-0.05,-0.06,0.07,7.5,-7.5
2.706,1,146.261658,33.910347,-29.206417,109.051926,0,0.18,-0.24,7.5,-7.5
2.753,1,146.318558,34.01363,-29.317024,108.800911,-0.04,0.08,-0.05,7.5,-7.5
2.801,1,146.288635,34.091198,-29.38006,108.970016,0.17,-0.27,-0.23,7.5,-7.5
2.85,1,146.318832,34.10149,-29.39852,108.800911,-0.11,-0.04,0.18,7.5,-7.5
2.897,1,146.463623,34.147984,-29.48254,109.305588,0.04,0.06,-0.41,7.5,-7.5
2.944,1,146.410492,34.215248,-29.5296,109.051926,0.03,-0.22,0.09,7.5,-7.5
2.992,1,146.402817,34.220428,-29.530994,109.136482,-0.07,0.09,0.03,7.5,-7.5
3.039,1,146.594879,34.246441,-29.609732,108.970016,0,0.12,-0.17,7.5,-7.5
3.086,1,146.760834,34.360889,-29.763838,108.970016,-0.01,0.06,0.13,7.5,-7.5
3.133,1,146.879181,34.413376,-29.844936,108.800911,0.01,-0.22,-0.18,7.5,-7.5
3.182,1,146.927002,34.382317,-29.830065,109.136482,-0.03,0.24,0.25,7.5,-7.5
3.231,1,147.006546,34.309944,-29.784315,108.885468,0.03,-0.08,0.17,7.5,-7.5
3.28,1,147.179565,34.279888,-29.804636,108.547256,0.04,0.19,-0.2,7.5,-7.5
3.33,1,147.485077,34.411575,-30.011665,109.221031,-0.1,-0.18,0.21,7.5,-7.5
3.378,1,148.512039,34.593903,-30.46064,109.305588,-0.21,0,0.1,7.5,-7.5
3.425,1,149.407623,34.579082,-30.683479,108.716362,0,0.36,-0.07,7.5,-7.5
3.473,1,149.643951,34.527935,-30.696877,108.800911,-0.11,0.24,-0.11,7.5,-7.5
3.522,1,149.579559,34.423996,-30.581924,109.221031,0.12,0.08,0.06,7.5,-7.5
3.571,1,149.752823,34.508312,-30.705479,109.390137,-0.07,-0.09,-0.07,7.5,-7.5
3.621,1,149.973694,34.568138,-30.818335,108.885468,0.05,0.12,0,7.5,-7.5
3.669,1,150.16243,34.803898,-31.089428,109.051926,-0.09,0.07,-0.07,7.5,-7.5
3.717,1,150.142334,34.803299,-31.083387,109.305588,-0.1,0.02,0.14,7.5,-7.5
3.764,1,150.226807,34.69862,-31.005646,109.136482,0.07,0.32,0.1,7.5,-7.5
3.813,1,150.232773,34.528923,-30.847052,108.716362,-0.06,-0.14,0.03,7.5,-7.5
3.862,1,150.389832,34.290855,-30.661299,109.474693,0.21,0.15,-0.48,7.5,-7.5
3.912,1,150.262573,34.278996,-30.618654,108.800911,-0.13,0.21,0.41,7.5,-7.5
3.961,1,150.324066,34.198864,-30.558443,108.970016,0.04,0.09,0.07,7.5,-7.5
4.009,1,150.403885,34.2192,-30.598068,109.051926,-0.08,0.01,0.04,7.5,-7.5
4.056,1,150.45192,34.237682,-30.62796,108.970016,0.01,0.07,-0.16,7.5,-7.5
4.104,1,150.369598,34.249535,-30.618845,108.885468,-0.09,0.15,0.23,7.5,-7.5
4.151,1,150.457413,34.321663,-30.707497,109.221031,-0.05,0,-0.03,7.5,-7.5
4.199,1,150.53125,34.356068,-30.758406,108.970016,-0.01,0.15,-0.14,7.5,-7.5
4.246,1,150.442032,34.367809,-30.746843,109.221031,0.03,0.03,0.05,7.5,-7.5
4.294,1,150.408325,34.418137,-30.786486,109.051926,-0.1,0.05,0.08,7.5,-7.5
4.341,1,150.37294,34.431984,-30.79072,108.800911,-0.02,0.04,0.25,7.5,-7.5
4.388,1,150.564224,34.430458,-30.837719,108.716362,0,0.25,-0.17,7.5,-7.5
4.436,1,150.626846,34.55051,-30.966396,108.380791,0.05,0.04,0.02,7.5,-7.5
4.484,1,150.637665,34.693302,-31.104527,108.631805,-0.07,-0.04,0.02,7.5,-7.5
4.534,1,150.690918,34.951443,-31.361034,109.051926,-0.11,0.25,-0.15,7.5,-7.5
4.583,1,150.620163,34.98024,-31.370993,108.547256,0,-0.03,0.07,7.5,-7.5
4.632,1,150.7341,35.157322,-31.567436,108.716362,-0.11,0.36,-0.17,7.5,-7.5
4.681,1,150.601471,35.414612,-31.77813,108.970016,0.15,-0.08,0.04,7.5,-7.5
4.728,1,150.553604,35.456036,-31.804365,109.221031,0.07,0.04,-0.07,7.5,-7.5
4.776,1,150.527939,35.596264,-31.930862,109.051926,-0.07,-0.06,-0.04,7.5,-7.5
4.825,1,150.531891,35.826534,-32.150185,109.051926,-0.06,-0.09,0.13,7.5,-7.5
4.874,1,150.831573,36.249023,-32.628422,109.221031,-0.01,0.17,-0.09,7.5,-7.5
4.924,1,151.08519,36.825077,-33.242073,108.885468,-0.07,0,-0.15,7.5,-7.5
4.972,1,151.092117,37.181957,-33.585655,108.4627,0.24,0.1,-0.04,7.5,-7.5
5.021,1,151.398163,37.903801,-34.355919,108.970016,-0.26,-0.08,0.27,7.5,-7.5
5.068,1,151.502838,38.088367,-34.55957,109.136482,-0.05,0.2,0.45,7.5,-7.5
5.116,1,151.654404,38.133881,-34.641323,108.631805,0.03,0.15,-0.08,7.5,-7.5
5.165,1,151.955643,38.226624,-34.807693,108.885468,-0.04,0.17,-0.04,7.5,-7.5
5.215,1,151.977234,38.168816,-34.756416,108.885468,-0.1,0.29,0.06,7.5,-7.5
5.262,1,151.936325,38.127811,-34.705425,108.716362,-0.15,0.02,-0.02,7.5,-7.5
5.31,1,151.944656,38.033779,-34.618572,108.4627,0,0.49,0.33,7.5,-7.5
5.357,1,152.409363,38.442558,-35.126827,108.631805,-0.22,0.13,-0.1,7.5,-7.5
5.405,1,152.478622,38.494106,-35.194092,108.885468,0.12,-0.09,0.05,7.5,-7.5
5.452,1,152.451065,38.180836,-34.884674,109.725708,-0.1,0.22,0.19,7.5,-7.5
5.499,1,152.485535,38.0201,-34.737514,109.136482,0.01,0.15,-0.3,7.5,-7.5
5.546,1,152.310989,37.905479,-34.584919,109.810265,-0.02,0.21,0.36,7.5,-7.5
5.594,1,152.167419,37.790878,-34.438148,109.221031,0.02,0.19,0.13,7.5,-7.5
5.641,1,152.152634,37.681152,-34.330231,109.556602,0.01,0.03,-0.22,7.5,-7.5
5.688,1,151.983353,37.568478,-34.180252,109.556602,-0.09,0.03,0.39,7.5,-7.5
5.737,1,152.057968,37.489372,-34.121738,108.885468,0.04,0.05,-0.2,7.5,-7.5
5.787,1,152.124176,37.273224,-33.931053,108.885468,0.02,0.03,-0.22,7.5,-7.5
5.836,1,152.041977,37.048588,-33.69418,109.051926,-0.01,0.3,0.29,7.5,-7.5
5.885,1,152.151718,37.08321,-33.755238,108.970016,0.03,0.12,-0.28,7.5,-7.5
5.935,1,152.130524,37.139797,-33.803108,108.800911,-0.09,-0.05,0.11,7.5,-7.5
5.983,1,152.101822,37.025158,-33.687889,108.547256,0,0.18,0.09,7.5,-7.5
6.03,1,152.169785,36.983055,-33.663448,109.390137,-0.02,0.16,0,7.5,-7.5
6.078,1,152.17189,37.042717,-33.721478,109.221031,-0.09,-0.06,-0.01,7.5,-7.5
6.127,1,152.110107,36.828995,-33.500511,109.136482,-0.01,0.11,0.11,7.5,-7.5
6.177,1,151.700134,35.942791,-32.552929,109.136482,0.05,0.12,0.04,7.5,-7.5
6.226,1,151.438431,35.321121,-31.896496,108.716362,-0.05,0.1,-0.27,7.5,-7.5
6.275,1,151.033829,34.997944,-31.490927,108.800911,0.08,-0.02,-0.04,7.5,-7.5
6.322,1,150.621918,34.67281,-31.080849,109.136482,-0.01,-0.32,0.17,7.5,-7.5
6.369,1,150.248901,34.176537,-30.518724,109.221031,0.12,0.19,-0.04,7.5,-7.5
6.418,1,150.052048,34.075882,-30.37579,108.716362,-0.09,0.06,0.03,7.5,-7.5
6.467,1,149.796341,33.937828,-30.181856,109.136482,0,0.04,0.32,7.5,-7.5
6.517,1,149.71405,33.88493,-30.111385,109.474693,-0.05,-0.12,-0.24,7.5,-7.5
6.564,1,149.502029,33.757214,-29.937811,109.136482,0,0.01,-0.03,7.5,-7.5
6.611,1,149.297516,33.583424,-29.72283,108.885468,-0.11,0.03,0.35,7.5,-7.5
6.659,1,149.314316,33.397213,-29.552223,109.641159,0.14,0.18,-0.19,7.5,-7.5
6.706,1,149.24646,33.370045,-29.510302,108.970016,0.02,-0.04,-0.22,7.5,-7.5
6.753,1,148.994949,33.326286,-29.405056,109.136482,-0.02,0.01,0.15,7.5,-7.5
6.801,1,148.972321,33.26881,-29.345087,109.136482,-0.03,0.08,0.14,7.5,-7.5
6.849,1,149.072571,33.277306,-29.379883,109.051926,0,-0.01,-0.07,7.5,-7.5
6.896,1,149.147232,33.278885,-29.399307,109.051926,0.08,0.07,-0.05,7.5,-7.5
6.943,1,149.196701,33.238186,-29.373814,108.885468,-0.08,0,0.17,7.5,-7.5
6.991,1,149.322128,33.189922,-29.360657,108.885468,0,0.18,-0.02,7.5,-7.5
7.04,1,149.429443,33.286636,-29.479074,108.716362,0,-0.02,-0.09,7.5,-7.5
7.089,1,149.465164,33.267181,-29.470226,109.136482,0.05,0.05,0.19,7.5,-7.5
7.139,1,149.61322,33.272549,-29.512285,109.136482,-0.02,0,-0.16,7.5,-7.5
7.188,1,149.5755,33.245274,-29.477404,108.885468,0,0,-0.03,7.5,-7.5
7.237,1,149.524765,33.284698,-29.501217,109.305588,-0.05,0,0.17,7.5,-7.5
7.284,1,149.594666,33.292549,-29.52606,108.970016,-0.07,0.07,-0.01,7.5,-7.5
7.331,1,149.606995,33.31377,-29.548513,109.474693,0.02,0.02,-0.07,7.5,-7.5
7.38,1,149.586136,33.3647,-29.591068,108.716362,0.03,0.08,0.1,7.5,-7.5
7.43,1,149.616013,33.360458,-29.594662,108.885468,0.01,-0.07,-0.01,7.5,-7.5
7.479,1,149.663391,33.382301,-29.628101,108.716362,0,0.1,-0.09,7.5,-7.5
7.528,1,149.625671,33.458698,-29.688221,109.051926,-0.11,-0.03,0.06,7.5,-7.5
7.576,1,149.677444,33.450233,-29.694338,109.221031,0,-0.05,0.1,7.5,-7.5
7.623,1,149.862732,33.441448,-29.732334,109.305588,-0.03,0.06,-0.16,7.5,-7.5
7.671,1,149.868637,33.426311,-29.719896,109.474693,0.03,0.06,-0.06,7.5,-7.5
7.721,1,149.976089,33.652939,-29.959663,108.885468,-0.12,0.02,-0.08,7.5,-7.5
7.77,1,150.361969,33.999218,-30.380966,108.631805,-0.03,-0.14,0.26,7.5,-7.5
7.819,1,151.146729,34.371052,-30.924137,108.631805,-0.09,0.31,-0.06,7.5,-7.5
7.868,1,151.706055,34.696709,-31.367826,109.136482,0.07,0.16,-0.17,7.5,-7.5
7.915,1,151.661697,34.588757,-31.254278,108.800911,-0.11,0.22,0.08,7.5,-7.5
7.963,1,151.54953,34.473385,-31.117985,108.547256,-0.05,0.2,0.01,7.5,-7.5
8.01,1,151.470703,34.268131,-30.905775,108.970016,-0.26,0.02,-0.01,7.5,-7.5
8.057,1,151.232727,33.922997,-30.521982,108.885468,-0.03,-0.01,-0.12,7.5,-7.5
8.104,1,150.806549,33.647461,-30.159372,108.885468,0.07,0.06,0.08,7.5,-7.5
8.151,1,150.614609,33.611923,-30.078423,109.136482,-0.12,-0.04,0.32,7.5,-7.5
8.198,1,150.853134,33.752102,-30.268684,108.716362,0.02,0.05,-0.31,7.5,-7.5
8.245,1,151.022003,33.798206,-30.35272,109.051926,-0.13,-0.06,-0.1,7.5,-7.5
8.293,1,151.19989,34.086567,-30.668699,108.800911,-0.02,-0.03,0.2,7.5,-7.5
8.342,1,151.715881,34.39838,-31.086641,108.885468,0.02,0.15,-0.25,7.5,-7.5
8.392,1,151.970001,34.856606,-31.582451,109.725708,0.03,0.02,0.09,7.5,-7.5
8.441,1,152.293137,35.38805,-32.165783,108.800911,-0.07,-0.18,0.11,7.5,-7.5
8.491,1,152.510483,35.520199,-32.342476,109.136482,0.12,0.29,-0.13,7.5,-7.5
8.539,1,152.633789,35.815865,-32.655617,109.556602,-0.01,0.13,0.17,7.5,-7.5
8.586,1,152.616745,35.785965,-32.622379,108.800911,-0.12,-0.08,-0.09,7.5,-7.5
8.634,1,152.574097,35.6782,-32.508545,108.970016,-0.01,-0.03,0.11,7.5,-7.5
8.683,1,152.525772,35.438667,-32.26939,109.051926,-0.02,0.17,0.18,7.5,-7.5
8.732,1,152.609528,35.289322,-32.145267,109.051926,0.01,-0.02,-0.39,7.5,-7.5
8.781,1,152.32605,35.064445,-31.864658,109.474693,-0.19,0.23,0.24,7.5,-7.5
8.831,1,151.872818,34.296806,-31.028336,109.136482,0.13,0.1,0.17,7.5,-7.5
8.879,1,151.718155,33.679482,-30.405951,108.970016,-0.11,0.02,0.09,7.5,-7.5
8.927,1,151.480453,32.997921,-29.706793,109.136482,-0.12,0.19,0.2,7.5,-7.5
8.974,1,151.232849,32.274837,-28.969143,109.051926,-0.31,-0.24,0.63,7.5,-7.5
9.023,1,150.996185,30.310534,-27.080183,109.474693,-0.12,0.71,0.37,7.5,-7.5
9.073,1,151.803986,28.684256,-25.74332,109.390137,-0.02,0.26,0.13,7.5,-7.5
9.122,1,151.261551,25.563404,-22.753571,109.136482,0.09,0.36,-0.76,7.5,-7.5
9.171,1,149.695084,22.804697,-19.951689,109.136482,0.55,-0.67,-0.14,7.5,-7.5
9.22,1,149.069016,21.334202,-18.521818,108.885468,0.18,0.06,-0.34,7.5,-7.5
9.267,1,150.20282,21.8519,-19.188486,109.051926,-0.21,-0.73,0.54,7.5,-7.5
9.315,1,151.832306,22.307577,-19.884335,108.800911,-0.28,0.18,-0.05,7.5,-7.5
9.362,1,154.781891,22.367189,-20.419743,109.051926,0.21,0.11,-1.01,7.5,-7.5
9.409,1,156.169159,22.391695,-20.650175,108.885468,0.34,0.22,-0.38,7.5,-7.5
9.456,1,155.119659,22.534611,-20.626438,108.970016,-0.29,-0.16,0.09,7.5,-7.5
9.503,1,154.191345,22.150677,-20.127369,109.390137,0.08,0.09,0.02,7.5,-7.5
9.55,1,153.249603,21.752316,-19.611141,109.474693,-0.08,-0.21,-0.17,7.5,-7.5
9.598,1,152.296692,21.239239,-18.989233,108.970016,0.07,0.26,0,7.5,-7.5
9.646,1,152.112152,21.0723,-18.807238,109.390137,-0.2,0.09,-0.09,7.5,-7.5
9.695,1,152.181259,21.136889,-18.877287,108.631805,0.07,0.02,-0.23,7.5,-7.5
9.744,1,151.456161,21.022329,-18.65502,108.970016,0.16,0.07,0.03,7.5,-7.5
9.794,1,150.457077,21.233158,-18.676107,108.885468,0.22,-0.03,-0.2,7.5,-7.5
9.843,1,149.529587,21.471548,-18.727205,108.800911,0.33,0.04,-0.06,7.5,-7.5
9.892,1,148.907822,21.899498,-18.995449,109.305588,-0.36,0.06,0.07,7.5,-7.5
9.939,1,148.395645,21.941689,-18.936939,108.380791,0,0.6,0.22,7.5,-7.5
9.987,1,148.165909,22.170422,-19.095991,108.800911,0.09,0.05,-0.02,7.5,-7.5
10.036,1,148.165375,22.54566,-19.427824,109.221031,0.02,0.13,-0.1,7.5,-7.5
10.085,1,148.280533,23.165133,-20.000269,109.136482,-0.04,-0.11,-0.37,7.5,-7.5
10.134,1,147.751968,23.616854,-20.293783,109.221031,-0.11,-0.13,0.04,7.5,-7.5
10.184,1,147.333023,24.226112,-20.746466,109.474693,-0.11,0.29,0.05,7.5,-7.5
10.233,1,147.05072,24.81049,-21.20335,108.970016,0.12,0,-0.2,7.5,-7.5
10.281,1,147.033859,25.657825,-21.950285,108.885468,-0.12,0.13,-0.09,7.5,-7.5
10.328,1,147.028305,26.692898,-22.870859,108.380791,-0.19,-0.13,-0.08,7.5,-7.5
10.376,1,147.03447,27.335474,-23.44606,109.051926,0.1,-0.1,0.07,7.5,-7.5
10.426,1,146.976135,27.961349,-23.993292,109.221031,-0.17,-0.04,0.21,7.5,-7.5
10.475,1,147.288162,27.955515,-24.062366,109.390137,0.17,0.11,-0.07,7.5,-7.5
10.525,1,147.67662,27.911373,-24.115448,108.631805,-0.3,0.1,0.1,7.5,-7.5
10.574,1,148.465363,27.736771,-24.140541,109.136482,0.28,0.15,-0.37,7.5,-7.5
10.622,1,148.667175,27.578798,-24.042995,108.970016,-0.19,0.14,-0.09,7.5,-7.5
10.669,1,148.553299,27.541672,-23.983717,109.136482,-0.25,-0.22,0.27,7.5,-7.5
10.717,1,149.063187,27.409847,-23.9797,108.970016,0.05,0.1,-0.2,7.5,-7.5
10.764,1,149.594437,27.476931,-24.158167,108.631805,0.14,0.25,-0.65,7.5,-7.5
10.811,1,149.184753,27.629799,-24.205715,108.716362,0.05,0.13,0.19,7.5,-7.5
10.858,1,148.704376,27.63069,-24.098562,108.547256,0.01,-0.54,0,7.5,-7.5
10.905,1,148.320435,27.5886,-23.973017,109.136482,-0.05,0.35,-0.02,7.5,-7.5
10.952,1,148.373291,27.714527,-24.099541,109.136482,-0.01,0.08,-0.12,7.5,-7.5
10.999,1,148.682526,28.374815,-24.770235,108.716362,0.01,-0.34,0.73,7.5,-7.5
11.048,1,149.672409,28.456692,-25.071327,109.474693,-0.1,0.11,-0.1,7.5,-7.5
11.097,1,151.103836,28.41544,-25.346592,108.631805,0.1,0.38,-0.74,7.5,-7.5
11.147,1,151.533264,28.930586,-25.914814,108.4627,-0.29,0.37,-0.18,7.5,-7.5
11.196,1,151.791138,29.543602,-26.539831,108.885468,0,-0.24,-0.06,7.5,-7.5
11.246,1,152.057831,29.680021,-26.725191,108.885468,-0.17,0.18,0.15,7.5,-7.5
11.293,1,152.058228,29.545113,-26.598324,108.800911,-0.1,0.04,0.04,7.5,-7.5
11.34,1,152.197021,29.180994,-26.288231,108.800911,0.03,0.42,-0.04,7.5,-7.5
11.389,1,152.24411,29.162491,-26.281401,109.051926,0.13,0.1,-0.06,7.5,-7.5
11.438,1,152.252731,29.015953,-26.146044,109.390137,0,-0.04,-0.03,7.5,-7.5
11.487,1,151.990051,28.713297,-25.809357,108.631805,0.2,-0.59,-0.31,7.5,-7.5
11.537,1,151.348618,28.22447,-25.221457,108.970016,-0.26,0.14,0.36,7.5,-7.5
11.586,1,151.346146,28.23036,-25.226189,108.885468,-0.02,0.34,-0.18,7.5,-7.5
11.634,1,151.200729,28.476145,-25.422859,108.885468,-0.12,-0.39,-0.1,7.5,-7.5
11.681,1,150.55159,28.131413,-24.965887,109.221031,-0.11,0.03,0.21,7.5,-7.5
11.73,1,150.517258,27.893442,-24.739525,108.716362,0.01,0.09,0.13,7.5,-7.5
11.779,1,150.863678,28.059965,-24.966284,108.4627,-0.26,-0.16,0.04,7.5,-7.5
11.828,1,151.53981,28.523777,-25.539108,108.716362,0.15,0.44,-0.33,7.5,-7.5
11.878,1,151.757584,28.597502,-25.653269,108.970016,-0.48,-0.16,0.27,7.5,-7.5
11.927,1,152.015274,27.720146,-24.892536,108.800911,0.16,0.34,-0.44,7.5,-7.5
11.975,1,151.956421,27.528276,-24.701744,108.970016,0.04,0,-0.48,7.5,-7.5
12.022,1,151.335114,27.4921,-24.54162,109.051926,0.04,0.03,0.22,7.5,-7.5
12.069,1,150.851257,27.133829,-24.111704,108.885468,-0.05,0.02,0.14,7.5,-7.5
12.116,1,150.788986,26.731333,-23.729954,108.885468,-0.02,0.43,-0.34,7.5,-7.5
12.163,1,150.075684,26.522936,-23.390841,108.970016,0.12,0.28,-0.28,7.5,-7.5
12.211,1,149.320984,26.505049,-23.214426,109.474693,-0.02,-0.41,0.51,7.5,-7.5
12.258,1,148.864075,26.346565,-22.972067,109.221031,0.22,0.05,-0.24,7.5,-7.5
12.305,1,148.605881,26.748608,-23.278194,108.885468,-0.04,0.22,-0.04,7.5,-7.5
12.352,1,148.703354,27.49872,-23.979067,108.800911,-0.43,0.45,-0.1,7.5,-7.5
12.401,1,148.504181,28.754921,-25.074787,108.885468,-0.61,-1.12,1.21,7.5,-7.5
12.45,1,149.978882,30.722336,-27.228539,108.800911,-1.36,0.49,-0.56,7.5,-7.5
12.5,1,151.550232,32.333138,-29.09767,108.885468,0.37,-1.05,0.68,7.5,-7.5
12.549,1,152.721252,33.111202,-30.099205,108.885468,0.81,1.08,-0.2,7.5,-7.5
12.598,1,153.409424,34.115097,-31.206392,108.800911,0.05,-0.15,-0.74,7.5,-7.5
12.647,1,152.271484,32.760849,-29.666023,108.885468,-0.12,-0.06,-0.4,7.5,-7.5
12.694,1,149.824463,30.273695,-26.776552,108.885468,-0.4,0.78,0.46,7.5,-7.5
12.742,1,148.500366,29.11972,-25.40589,108.800911,-0.11,-0.43,-0.12,7.5,-7.5
12.791,1,147.500137,28.374435,-24.490608,109.136482,0.23,0.75,0.07,7.5,-7.5
12.84,1,147.736053,28.506435,-24.667133,108.885468,0.27,0.01,0.08,7.5,-7.5
12.89,1,147.893677,28.64752,-24.831949,109.051926,-0.54,0.54,-0.46,7.5,-7.5
12.939,1,146.845856,27.490665,-23.540625,108.716362,0.49,0.48,0.78,7.5,-7.5
12.988,1,146.305328,26.972521,-22.949717,108.800911,0.09,0.12,0.04,7.5,-7.5
13.035,1,146.384048,27.211836,-23.180244,108.970016,-0.09,0.09,0.27,7.5,-7.5
13.083,1,146.232483,27.162451,-23.100481,108.970016,0.14,-0.04,-0.64,7.5,-7.5
13.132,1,145.235092,26.272635,-22.073095,108.716362,-0.1,0.37,0.33,7.5,-7.5
13.181,1,144.870712,25.997301,-21.744436,109.051926,-0.28,0.18,-0.37,7.5,-7.5
13.23,1,144.522964,25.760679,-21.454084,109.051926,0.01,0.13,0,7.5,-7.5
13.279,1,144.473831,25.743513,-21.426678,109.221031,0.07,0.19,-0.03,7.5,-7.5
13.326,1,144.631485,25.800528,-21.51519,108.970016,0.24,-0.02,-0.19,7.5,-7.5
13.374,1,144.593231,25.783323,-21.4907,108.800911,-0.12,0.15,0.33,7.5,-7.5
13.422,1,144.587234,25.976343,-21.657665,108.631805,0.19,0.13,-0.21,7.5,-7.5
13.469,1,144.48436,25.997255,-21.649769,108.885468,0.14,-0.61,0.06,7.5,-7.5
13.516,1,143.562729,25.4237,-20.928219,108.885468,-0.14,0.31,-0.48,7.5,-7.5
13.563,1,143.219421,25.135071,-20.59519,109.221031,0.25,0.2,0.75,7.5,-7.5
13.611,1,143.489319,25.47246,-20.951502,108.885468,-0.39,0.06,-0.43,7.5,-7.5
13.658,1,144.096832,25.787397,-21.373642,108.885468,0.24,0.14,0,7.5,-7.5
13.705,1,144.671173,26.186144,-21.860958,109.136482,-0.19,-0.07,-0.42,7.5,-7.5
13.753,1,144.692429,26.212708,-21.888969,108.716362,-0.03,0.22,0.36,7.5,-7.5
13.803,1,144.952393,26.329784,-22.054882,108.631805,-0.3,0.66,0.23,7.5,-7.5
13.852,1,145.647751,26.70141,-22.550131,109.136482,0.08,-0.05,-0.15,7.5,-7.5
13.902,1,146.068344,26.9312,-22.855936,109.221031,0.06,-0.09,-0.23,7.5,-7.5
13.951,1,146.278549,26.997236,-22.964695,108.885468,0.04,0.3,-0.2,7.5,-7.5
14,1,147.051834,27.432287,-23.536901,108.547256,-0.05,0.38,0.42,7.5,-7.5
14.047,1,149.402573,29.140017,-25.635035,108.885468,0.08,0.33,-0.14,7.5,-7.5
14.095,1,150.352585,29.827366,-26.486195,108.716362,0.07,-0.65,-0.66,7.5,-7.5
14.144,1,150.115189,29.316423,-25.960203,109.136482,0,0.13,-0.42,7.5,-7.5
14.193,1,149.806671,29.092386,-25.684614,109.221031,-0.13,0.63,0.59,7.5,-7.5
14.242,1,149.973846,29.094671,-25.72397,109.221031,-0.14,0.24,-0.67,7.5,-7.5
14.292,1,149.90564,29.094992,-25.708315,109.641159,0.01,-0.08,0.2,7.5,-7.5
14.34,1,149.899963,29.147089,-25.755987,109.305588,-0.01,0.19,0.13,7.5,-7.5
14.387,1,150.062317,29.368555,-25.995945,109.221031,-0.05,0.38,-0.17,7.5,-7.5
14.435,1,150.131271,29.49655,-26.130144,109.051926,0,-0.02,-0.04,7.5,-7.5
14.484,1,150.125153,29.41234,-26.051086,109.221031,0.05,-0.04,0.43,7.5,-7.5
14.534,1,150.266083,29.470102,-26.135963,109.556602,-0.09,0.38,-0.22,7.5,-7.5
14.583,1,150.280457,29.572321,-26.234121,109.725708,0.04,-0.04,0.37,7.5,-7.5
14.632,1,150.48204,29.638136,-26.340168,109.390137,-0.19,0.24,-0.21,7.5,-7.5
14.681,1,150.412354,29.608185,-26.297169,109.221031,0.08,0.09,0.11,7.5,-7.5
14.728,1,150.169357,29.296339,-25.954292,109.894814,-0.09,0.07,-0.02,7.5,-7.5
14.776,1,149.580841,28.84621,-25.406704,109.641159,0.06,0.51,0.31,7.5,-7.5
14.823,1,149.169983,28.567387,-25.057739,109.051926,0.05,-0.12,0.18,7.5,-7.5
14.87,1,148.87793,28.401056,-24.839312,109.390137,0,-0.44,-0.42,7.5,-7.5
14.917,1,147.457397,27.23341,-23.454052,109.136482,0,0.18,0.03,7.5,-7.5
14.964,1,145.956711,26.070242,-22.06736,109.390137,-0.27,0.54,-0.3,7.5,-7.5
15.011,1,144.38736,25.019075,-20.777723,108.885468,-0.17,1,-0.02,7.5,-7.5
15.058,1,143.566635,24.497461,-20.132959,109.221031,-0.83,0.6,-0.69,7.5,-7.5
15.107,1,143.235245,24.228794,-19.825361,109.390137,0.07,0.7,0.14,7.5,-7.5
15.156,1,142.17392,23.783119,-19.193024,108.716362,0.15,-0.56,0.17,7.5,-7.5
15.206,1,139.016998,22.392986,-17.278147,109.136482,0.76,0.48,-0.86,7.5,-7.5
15.255,1,135.627472,21.211025,-15.505095,108.970016,-0.59,-0.16,-0.08,7.5,-7.5
15.304,1,135.638229,21.099884,-15.42237,109.474693,-0.49,0.35,0.2,7.5,-7.5
15.354,1,136.519562,21.460171,-15.920699,109.305588,0.43,0.04,-0.45,7.5,-7.5
15.402,1,135.18515,20.762962,-15.053295,109.136482,-0.19,0.37,0.38,7.5,-7.5
15.449,1,132.70578,19.744371,-13.681403,108.970016,0.14,-0.12,-0.35,7.5,-7.5
15.497,1,131.525497,19.259033,-13.041298,109.221031,-0.17,0.19,0.48,7.5,-7.5
15.546,1,133.458878,19.870892,-13.960378,109.390137,0.3,-0.26,-0.72,7.5,-7.5
15.596,1,133.759644,19.927794,-14.076765,109.390137,-0.12,-0.28,0.02,7.5,-7.5
15.645,1,133.866684,19.904423,-14.086012,108.970016,-0.18,0.01,-0.04,7.5,-7.5
15.694,1,134.164276,19.923313,-14.172523,109.725708,0.12,0.55,0.01,7.5,-7.5
15.743,1,134.428177,19.963741,-14.266794,108.800911,-0.23,0.09,0.09,7.5,-7.5
15.79,1,134.89769,19.97595,-14.38983,109.305588,0.28,0.1,-0.01,7.5,-7.5
15.838,1,135.87355,20.288874,-14.862125,109.556602,-0.11,0.4,-0.23,7.5,-7.5
15.887,1,137.362671,20.818132,-15.627411,108.885468,0.08,-0.16,-0.04,7.5,-7.5
15.937,1,138.475571,21.234064,-16.219538,109.136482,-0.29,0.21,-0.34,7.5,-7.5
15.986,1,137.723602,20.714973,-15.631742,109.390137,0.46,-0.15,0.5,7.5,-7.5
16.035,1,137.497086,20.636831,-15.517093,109.810265,-0.11,0.58,0.05,7.5,-7.5
16.084,1,139.003311,21.30282,-16.399567,109.556602,-0.49,-0.1,0.14,7.5,-7.5
16.131001,1,139.576721,21.581631,-16.75889,109.136482,0.47,-0.23,-0.63,7.5,-7.5
16.179001,1,138.385559,21.080334,-16.076536,108.885468,0,0.39,0,7.5,-7.5
16.226,1,137.582428,20.91909,-15.758405,109.136482,0.27,0.22,0.44,7.5,-7.5
16.273001,1,137.777084,21.061954,-15.917229,109.136482,-0.49,0.21,0.54,7.5,-7.5
16.32,1,138.627716,21.530741,-16.492878,109.556602,0.22,0.26,-0.36,7.5,-7.5
16.367001,1,138.403564,21.598904,-16.49284,108.885468,-0.34,0.02,-0.23,7.5,-7.5
16.414,1,137.718445,21.397263,-16.167297,109.051926,0.1,0.25,0.21,7.5,-7.5
16.461,1,138.724045,21.894333,-16.806273,109.390137,-0.05,0.05,0.52,7.5,-7.5
16.51,1,140.514236,22.998737,-18.138412,109.051926,0.15,-0.56,-0.74,7.5,-7.5
16.559,1,139.820908,22.654892,-17.687605,109.136482,-0.12,0.08,0.38,7.5,-7.5
16.608,1,140.410889,22.513636,-17.71419,110.061279,0.26,-0.04,0.27,7.5,-7.5
16.658001,1,142.089752,23.196688,-18.680147,108.970016,-0.81,0.04,0.04,7.5,-7.5
16.707001,1,142.789612,22.732233,-18.45314,109.136482,0,0.07,0.66,7.5,-7.5
16.756001,1,141.823334,21.195869,-16.954132,108.800911,-0.11,-0.52,1.38,7.5,-7.5
16.802999,1,136.166901,18.231302,-13.366382,108.885468,0.48,-0.97,0.65,7.5,-7.5
16.85,1,132.297211,16.564062,-11.318682,109.221031,-0.06,-1.43,-0.85,7.5,-7.5
16.899,1,131.154877,15.507604,-10.348051,109.305588,0.23,-0.71,0.08,7.5,-7.5
16.948999,1,130.655106,14.054075,-9.262887,108.380791,-0.07,2.21,0.26,7.5,-7.5
16.997999,1,134.084778,13.123607,-9.213271,108.716362,-0.29,-0.23,-0.99,7.5,-7.5
17.048,1,135.57576,13.474465,-9.710481,109.305588,0.74,0.13,-1.41,7.5,-7.5
17.096001,1,137.000214,14.771213,-10.914784,109.641159,-0.83,-0.74,0.58,7.5,-7.5
17.143,1,138.505157,15.146323,-11.461089,109.810265,-0.08,-0.09,-0.9,7.5,-7.5
17.191,1,142.230301,15.898101,-12.68827,110.061279,-0.49,0.34,-0.5,7.5,-7.5
17.24,1,144.247711,16.661747,-13.651842,109.810265,-0.35,0.5,-0.08,7.5,-7.5
17.290001,1,145.077423,17.007257,-14.079175,109.556602,0.21,0.17,-0.11,7.5,-7.5
17.339001,1,147.076294,18.217566,-15.443431,109.474693,-0.29,0.2,0.71,7.5,-7.5
17.388,1,146.154892,18.047136,-15.14271,109.556602,0,-0.25,-0.74,7.5,-7.5
17.437,1,149.068771,18.833965,-16.308861,109.810265,-0.1,-0.29,-0.28,7.5,-7.5
17.483999,1,152.429214,20.03764,-17.915998,109.390137,-0.07,0.68,0.03,7.5,-7.5
17.532,1,152.108322,19.640482,-17.506516,108.970016,-0.16,0.27,-0.48,7.5,-7.5
17.579,1,151.869919,19.269997,-17.135202,108.970016,-0.28,-0.03,0.3,7.5,-7.5
17.625999,1,151.018021,18.665482,-16.463211,109.221031,-0.29,0.32,0.09,7.5,-7.5
17.673,1,151.366165,18.323015,-16.207289,109.221031,-0.09,-0.17,-0.24,7.5,-7.5
17.719999,1,151.851654,18.405924,-16.352751,109.136482,-0.17,0.56,0.06,7.5,-7.5
17.767,1,150.114517,17.398355,-15.199389,109.390137,0.02,-0.53,-0.65,7.5,-7.5
17.815001,1,149.93689,17.269415,-15.05926,109.051926,-0.02,-0.14,-0.05,7.5,-7.5
17.863001,1,150.374359,17.412649,-15.249653,109.725708,-0.04,0.23,0.22,7.5,-7.5
17.912001,1,150.423187,17.320639,-15.175276,109.136482,0.06,-0.22,-0.32,7.5,-7.5
17.961,1,151.38736,17.832964,-15.770322,108.970016,-0.01,0.21,-0.18,7.5,-7.5
18.011,1,151.525528,18.079088,-16.011391,109.556602,-0.07,0.11,0.12,7.5,-7.5
18.059999,1,151.805161,18.234152,-16.191105,109.641159,-0.07,-0.07,0.12,7.5,-7.5
18.108999,1,152.239014,18.380383,-16.384773,109.136482,-0.02,-0.01,-0.11,7.5,-7.5
18.158001,1,152.742325,18.53721,-16.598246,109.221031,0.1,0.14,0.19,7.5,-7.5
18.205,1,152.598282,18.431627,-16.482634,109.221031,-0.15,0.09,0.19,7.5,-7.5
18.253,1,152.521301,18.217806,-16.277355,109.136482,0,0.15,-0.24,7.5,-7.5
18.302,1,152.997101,18.43626,-16.542572,109.051926,-0.07,0.17,0,7.5,-7.5
18.351999,1,152.805557,18.263935,-16.358749,109.474693,-0.1,0.26,-0.32,7.5,-7.5
18.400999,1,152.602859,18.056568,-16.142796,109.390137,-0.08,0.33,0.07,7.5,-7.5
18.450001,1,152.749878,18.008856,-16.119968,109.725708,-0.13,0.3,0.25,7.5,-7.5
18.497999,1,152.793701,17.955658,-16.077408,109.305588,-0.11,0.14,-0.23,7.5,-7.5
18.545,1,152.571686,17.862192,-15.962523,109.136482,0,0.09,-0.18,7.5,-7.5
18.594,1,151.922638,17.597183,-15.633829,109.136482,-0.11,0.11,-0.18,7.5,-7.5
18.643,1,152.009201,17.687016,-15.726508,109.474693,0.02,0.42,0.03,7.5,-7.5
18.691999,1,152.258728,17.89123,-15.945496,109.810265,-0.17,0.32,0,7.5,-7.5
18.742001,1,151.926849,17.689363,-15.717134,109.641159,-0.01,0.01,-0.33,7.5,-7.5
18.790001,1,152.209335,17.803043,-15.859361,109.474693,0.06,0.28,-0.12,7.5,-7.5
18.837,1,151.827576,17.589693,-15.613997,109.556602,-0.2,0.4,0.01,7.5,-7.5
18.885,1,151.040817,17.052092,-15.02312,109.556602,-0.07,-0.11,0.07,7.5,-7.5
18.931999,1,150.937744,16.822351,-14.80377,109.725708,0.02,0.48,-0.17,7.5,-7.5
18.979,1,151.286621,17.090263,-15.09038,109.390137,-0.13,0.14,0.48,7.5,-7.5
19.025999,1,150.95163,16.969948,-14.937479,109.390137,-0.07,0.25,-0.33,7.5,-7.5
19.073,1,150.288712,16.69245,-14.597975,109.474693,0.14,0.06,-0.01,7.5,-7.5
19.120001,1,148.997025,16.079746,-13.878524,109.136482,0.1,0.19,-1.18,7.5,-7.5
19.167,1,148.580429,15.72821,-13.512913,109.305588,-0.21,0.46,0.22,7.5,-7.5
19.215,1,147.363373,15.251549,-12.931338,109.051926,-0.11,0.19,-0.49,7.5,-7.5
19.264999,1,147.167816,15.241679,-12.895527,109.051926,-0.17,0.48,-0.02,7.5,-7.5
19.313999,1,144.792526,14.654766,-12.060987,109.221031,-0.09,0.19,0.18,7.5,-7.5
19.364,1,142.76535,14.106422,-11.314182,109.305588,0.21,0,-0.21,7.5,-7.5
19.413,1,142.001114,13.797029,-10.952357,109.221031,-0.12,0.29,-0.36,7.5,-7.5
19.462,1,141.589462,13.663419,-10.784882,109.725708,-0.29,0.1,-0.03,7.5,-7.5
19.511,1,139.963181,13.365192,-10.309684,109.725708,-0.07,0.01,0,7.5,-7.5
19.558001,1,139.365402,13.447089,-10.284225,109.221031,0.19,-0.02,0.01,7.5,-7.5
19.606001,1,138.363831,13.3777,-10.07847,109.221031,-0.29,-0.04,-0.25,7.5,-7.5
19.655001,1,138.525238,13.525331,-10.216861,109.474693,0.07,0.17,-0.16,7.5,-7.5
19.705,1,138.032211,13.593675,-10.192358,109.390137,-0.1,0.04,0.25,7.5,-7.5
19.754,1,136.434174,13.368516,-9.770356,109.305588,0.01,0.32,-0.15,7.5,-7.5
19.802999,1,135.124893,13.328548,-9.530608,109.894814,-0.12,-0.41,0.24,7.5,-7.5
19.851999,1,135.869827,13.522425,-9.793557,109.556602,-0.12,0.3,0.17,7.5,-7.5
19.9,1,135.457718,13.368044,-9.613166,109.894814,-0.12,-0.26,-0.33,7.5,-7.5
19.947001,1,136.02916,13.472838,-9.782712,109.474693,0.17,0.07,-0.3,7.5,-7.5
19.996,1,136.311218,13.586205,-9.912669,110.061279,-0.03,-0.06,-0.06,7.5,-7.5
20.046,1,137.695221,13.930191,-10.394787,108.885468,0,-0.13,0,7.5,-7.5
20.094999,1,139.704437,14.536647,-11.187183,109.221031,0.05,-0.07,0.01,7.5,-7.5
20.143999,1,140.360977,14.619466,-11.357968,109.051926,-0.23,-0.14,-0.1,7.5,-7.5
20.191,1,141.172134,14.7729,-11.608826,109.390137,0.11,-0.09,-0.1,7.5,-7.5
20.239,1,142.265869,15.033336,-11.991303,110.061279,0.05,0.05,0,7.5,-7.5
20.285999,1,143.060822,15.248224,-12.291243,109.556602,-0.21,-0.06,0.55,7.5,-7.5
20.333,1,144.595306,15.406759,-12.659014,109.556602,0.02,0.02,-0.53,7.5,-7.5
20.379999,1,146.673737,15.93776,-13.420835,108.885468,0,0.22,-0.03,7.5,-7.5
20.427,1,147.03038,15.890069,-13.431939,108.970016,-0.17,0.07,-0.29,7.5,-7.5
20.474001,1,146.26033,15.57428,-13.049604,109.051926,0,-0.28,-0.1,7.5,-7.5
20.521999,1,146.577255,15.640046,-13.15164,109.390137,0,0.21,0.03,7.5,-7.5
20.569,1,147.255142,15.754684,-13.348828,109.556602,0.06,0.09,-0.01,7.5,-7.5
20.618,1,147.712936,15.829999,-13.479234,109.474693,0.03,0,-0.3,7.5,-7.5
20.667,1,148.518417,16.066202,-13.799193,110.061279,-0.07,-0.01,-0.22,7.5,-7.5
20.716999,1,148.890213,16.242208,-14.005226,109.725708,-0.02,0.13,0.17,7.5,-7.5
20.766001,1,148.791168,16.283184,-14.027225,109.474693,-0.08,0.14,0.07,7.5,-7.5
20.813999,1,148.590149,16.286886,-14.001309,109.556602,-0.05,0.02,0.16,7.5,-7.5
20.862,1,148.358932,16.190407,-13.884398,109.305588,-0.13,0.32,-0.1,7.5,-7.5
20.909,1,148.372925,16.211275,-13.904469,109.725708,0,0.07,-0.1,7.5,-7.5
20.958,1,148.543655,16.186476,-13.907283,109.725708,-0.12,0.34,-0.11,7.5,-7.5
21.007999,1,147.692581,15.787566,-13.439659,110.314934,0.06,0.01,-0.25,7.5,-7.5
21.056999,1,147.893646,15.712455,-13.40364,109.725708,0.06,0.23,-0.12,7.5,-7.5
21.106001,1,148.285355,15.633393,-13.390185,109.641159,-0.12,0.14,-0.12,7.5,-7.5
21.153,1,148.963089,15.853883,-13.675666,109.641159,-0.06,0.29,-0.06,7.5,-7.5
21.200001,1,148.873383,15.797643,-13.614729,109.556602,-0.22,0.16,-0.35,7.5,-7.5
21.249001,1,148.995956,15.725968,-13.568748,109.221031,0.06,0.37,-0.2,7.5,-7.5
21.299,1,148.093231,15.389126,-13.151078,109.556602,0,0.23,-0.11,7.5,-7.5
21.348,1,147.00206,14.98671,-12.653869,108.800911,0.04,0.15,-0.06,7.5,-7.5
21.396999,1,146.94458,14.855896,-12.533944,108.885468,-0.12,0.25,-0.06,7.5,-7.5
21.445999,1,146.14769,14.371984,-12.013364,109.641159,-0.48,0.11,-0.73,7.5,-7.5
21.493999,1,146.648331,14.481329,-12.17405,108.970016,0.09,0.24,-0.13,7.5,-7.5
21.541,1,146.230667,14.373842,-12.026038,109.136482,-0.12,0.14,-0.02,7.5,-7.5
21.589001,1,146.127487,14.267198,-11.922047,108.885468,-0.68,0.24,-0.19,7.5,-7.5
21.636,1,146.194565,14.218685,-11.889495,108.970016,-0.24,0.39,-0.16,7.5,-7.5
21.683001,1,145.341629,14.082399,-11.658654,108.970016,0.29,0.23,-0.8,7.5,-7.5
21.73,1,144.46019,14.023709,-11.488595,109.474693,0.31,0.11,0.13,7.5,-7.5
21.777,1,143.145859,13.867095,-11.173633,108.970016,-0.26,0.26,0.34,7.5,-7.5
21.823999,1,143.029083,13.652542,-10.982223,108.885468,0.03,0.43,-0.4,7.5,-7.5
21.872,1,144.427994,13.877009,-11.361825,109.051926,0.03,0.22,-0.4,7.5,-7.5
21.921,1,143.848633,13.804088,-11.221345,109.221031,-0.08,0.41,-0.46,7.5,-7.5
21.969999,1,141.40654,13.118718,-10.323458,109.221031,0.22,0.19,0.11,7.5,-7.5
22.02,1,139.844971,12.874046,-9.908953,109.305588,-0.07,0.17,-0.23,7.5,-7.5
22.069,1,139.24649,12.638553,-9.640534,109.221031,-0.11,0.07,-0.09,7.5,-7.5
22.118,1,138.378006,12.438519,-9.362797,109.474693,-0.16,0.35,-0.23,7.5,-7.5
22.166,1,136.875687,12.174773,-8.948599,109.136482,-0.22,0.14,-0.14,7.5,-7.5
22.212999,1,136.42453,12.289007,-8.968006,109.390137,-0.01,0.28,-0.14,7.5,-7.5
22.261999,1,134.985779,12.066222,-8.593358,109.390137,0.07,0.08,-0.75,7.5,-7.5
22.311001,1,133.808426,12.153704,-8.47948,109.474693,0.05,-0.38,-0.91,7.5,-7.5
22.360001,1,138.213745,13.473117,-10.128348,109.474693,-0.16,0.22,-0.68,7.5,-7.5
22.41,1,136.96936,14.112405,-10.413692,109.221031,0.03,0.24,-2.29,7.5,-7.5
22.459,1,137.250656,15.552936,-11.551161,109.051926,0.06,-0.69,-1.72,7.5,-7.5
22.507,1,155.064026,22.06357,-20.180006,109.641159,0.13,-0.7,0.05,7.5,-7.5
22.555,1,169.174454,34.80941,-34.32827,108.885468,0.64,-2.79,-0.33,7.5,-7.5
22.603001,1,174.334351,49.408676,-49.268898,108.885468,-0.89,-2.75,3.08,7.5,-7.5
22.652,1,176.578857,60.647999,-60.603924,109.221031,-0.62,0.8,1.36,7.5,-7.5
22.701,1,176.449463,63.70158,-63.657913,109.221031,-0.64,1.14,-3.27,7.5,-7.5
22.75,1,175.96933,78.923325,-78.896324,109.390137,0.5,0.04,1.25,7.5,-7.5
22.799999,1,175.154343,90.229141,-90.229965,108.970016,0.33,0.93,0.13,-0.378087,-7.5
22.848,1,174.2892,101.276329,-101.331337,109.051926,-0.88,0.64,1.25,-7.5,-7.5
22.895,1,172.926529,110.496475,-110.640442,109.390137,1.26,-1.48,2.11,-7.5,-7.5
22.943001,1,170.885101,115.864891,-116.152222,109.221031,0.46,-0.59,-0.43,-7.5,-7.5
22.99,1,168.443497,122.544075,-123.079918,108.885468,0.46,-2.26,-0.96,-7.5,-7.5
23.038,1,168.119553,123.981941,-124.558968,109.136482,0,0.61,-2.41,-7.5,-7.5
23.084999,1,168.544983,124.335388,-124.874702,109.641159,-0.01,0.27,0.5,-7.5,-7.5
23.132,1,168.598618,124.798477,-125.337723,108.970016,-0.13,-0.07,0.84,-7.5,-7.5
23.179001,1,167.654846,126.535439,-127.175438,108.885468,0.4,-0.5,0.38,-7.5,-7.5
23.226,1,166.364105,129.385406,-130.192886,109.221031,0.18,0.23,0.68,-7.5,-7.5
23.274,1,165.952179,129.205246,-130.060883,109.221031,0.23,0.34,-0.75,-7.5,-7.5
23.323,1,165.732697,128.309052,-129.18605,109.390137,-0.67,-1.06,0.1,-7.5,-7.5
23.372999,1,165.340378,128.766617,-129.694168,109.305588,0.44,-0.13,-0.14,-7.5,-7.5
23.422001,1,165.420486,128.395905,-129.311188,109.390137,0.25,0.35,-0.4,-7.5,-7.5
23.472,1,164.963409,127.775963,-128.747314,109.556602,-0.13,-0.42,0.39,-7.5,-7.5
23.521,1,164.527267,128.265366,-129.301117,109.474693,-0.32,-0.25,0,-7.5,-7.5
23.569,1,164.41922,128.613312,-129.664993,109.474693,0.36,0.43,0.23,-7.5,-7.5
23.615999,1,164.203568,127.721214,-128.789963,108.970016,-0.21,0.21,-0.13,-7.5,-7.5
23.665001,1,164.546906,126.045181,-127.053627,108.885468,0.05,-0.35,0.07,-7.5,-7.5
23.714001,1,164.934219,124.374046,-125.314331,109.641159,0.1,-0.41,0.35,-7.5,-7.5
23.763,1,165.152176,123.801216,-124.706802,109.221031,-0.03,0.45,0,-7.5,-7.5
23.813,1,165.623962,122.245544,-123.076836,109.474693,0.11,0.06,-0.12,-7.5,-7.5
23.862,1,166.10733,119.659592,-120.395943,109.474693,0.13,0.06,-0.35,-7.5,-7.5
23.91,1,166.376999,115.641052,-116.282516,109.474693,0.13,-0.28,0.47,-7.5,-7.5
23.957001,1,166.442795,108.979286,-109.483002,109.305588,-0.33,-0.23,0.39,-7.5,-7.5
24.004999,1,165.969025,103.32869,-103.724113,109.390137,0.17,-0.45,0,-7.5,-7.5
24.054001,1,165.559616,96.633217,-96.848076,109.221031,0.23,0.17,-0.68,-7.5,-7.5
24.104,1,164.946442,89.095322,-89.063179,109.474693,0.05,0.16,0.64,1.492733,-7.5
24.153,1,164.550674,85.562073,-85.396492,108.970016,-0.1,1.18,1.63,7.413169,-7.5
24.202999,1,164.806366,86.98262,-86.873413,109.474693,0.22,-0.27,-0.61,4.978723,-7.5
24.250999,1,164.920593,85.625526,-85.469955,109.390137,0.24,0.05,0.52,7.400119,-7.5
24.298,1,164.863892,83.692123,-83.467026,109.305588,-0.49,0.5,0.65,7.5,-7.5
24.346001,1,164.865707,83.275948,-83.036606,109.556602,0.54,0.04,0.16,7.5,-7.5
24.393,1,164.867828,82.878685,-82.625755,109.474693,-0.05,-0.72,-0.68,7.5,-7.5
24.440001,1,164.798187,79.571304,-79.202087,109.136482,0.44,0.61,0.14,7.5,-7.5
24.487,1,164.688782,72.633804,-72.034737,109.136482,0.46,-0.06,0.15,7.5,-7.5
24.534,1,164.11731,67.669289,-66.875298,109.051926,-0.52,-0.14,-0.18,7.5,-7.5
24.580999,1,163.241531,61.428684,-60.371841,108.970016,0.09,0.06,-0.36,7.5,-7.5
24.629,1,161.800232,55.38073,-53.993938,109.051926,0.31,0.4,0.5,7.5,-7.5
24.677,1,160.870377,52.44418,-50.859676,109.136482,-0.19,0.75,0.61,7.5,-7.5
24.726,1,160.404968,50.758083,-49.074539,109.556602,0.68,-0.45,-0.72,7.5,-7.5
24.775999,1,160.148178,49.689949,-47.951988,108.631805,0.04,-0.31,-0.56,7.5,-7.5
24.825001,1,159.787186,48.727631,-46.915035,109.136482,-0.33,0.31,0.34,7.5,-7.5
24.874001,1,159.476089,47.985165,-46.112064,109.221031,0.13,-0.33,0.37,7.5,-7.5
24.923,1,159.043518,46.049152,-44.08876,109.051926,-0.18,-0.95,-0.04,7.5,-7.5
24.969999,1,159.092072,44.635399,-42.686344,109.051926,-0.08,0.43,1.21,7.5,-7.5
25.018,1,158.372467,42.165886,-40.093586,109.474693,0.49,0.42,0.8,7.5,-7.5
25.066999,1,157.517029,38.42437,-36.240517,109.305588,-0.21,0.22,0.89,7.5,-7.5
25.115999,1,156.858551,35.005878,-32.781425,108.631805,-0.1,0.42,0.06,7.5,-7.5
25.166,1,155.56076,30.651381,-28.347551,108.970016,-0.3,1.01,0.38,7.5,-7.5
25.215,1,151.953674,25.087029,-22.449568,109.221031,0.06,0.8,0.03,7.5,-7.5
25.264,1,142.980576,19.274143,-15.59997,109.051926,-0.12,0.28,-1.01,7.5,-7.5
25.312,1,128.795578,15.782343,-10.042324,109.136482,0,0.36,-1.38,7.5,-7.5
25.358999,1,110.623367,14.490736,-5.201389,108.800911,0.53,-0.23,-1.83,7.5,-7.5
25.408001,1,99.225533,15.168461,-2.488767,108.800911,0.55,-3.34,1.78,7.5,-7.5
25.457001,1,93.069702,16.449841,-0.905839,109.136482,0.36,-1.29,2.44,7.5,-5.127669
25.507,1,89.052414,17.07024,0.290964,109.474693,0.36,-0.01,-0.95,7.5,1.563531
25.556,1,88.737404,16.956064,0.384917,108.885468,0.79,-1.04,-0.07,7.5,2.109056
25.605,1,89.313225,16.949717,0.2093,108.970016,0.27,-0.87,0.2,7.5,1.147198
25.653,1,92.143761,16.806864,-0.647332,108.547256,0.12,-0.92,-0.41,7.5,-3.626513
25.700001,1,87.775146,15.93118,0.634889,108.970016,-0.07,0.2,-0.38,7.5,3.812976
25.747999,1,84.64518,15.020046,1.43447,109.556602,0.45,0.46,0.57,7.5,7.5
25.795,1,81.826012,14.221298,2.06365,108.547256,0.12,0.99,0.82,7.5,7.5
25.841999,1,82.50045,14.024541,1.867305,108.716362,0.27,-0.46,-0.3,7.5,7.5
25.889999,1,83.462936,14.044229,1.631254,108.800911,0.27,-0.39,0.26,7.5,7.5
25.937,1,85.064438,13.899517,1.21967,109.051926,-0.49,-0.03,1.17,7.5,7.5
25.983999,1,80.157204,14.024626,2.445079,109.051926,0.35,-0.01,-0.29,7.5,7.5
26.031,1,78.862114,14.012374,2.760002,108.970016,0.18,0.53,0.29,7.5,7.5
26.08,1,83.67746,13.969276,1.569177,108.885468,-0.14,-0.54,-0.4,7.5,7.5
26.129,1,87.77787,13.969687,0.552625,108.885468,0.29,-0.43,-0.08,7.5,3.711874
26.177999,1,91.703102,14.014503,-0.425026,109.305588,-0.15,-0.13,0.13,7.5,-2.844883
26.228001,1,94.529602,14.058786,-1.132993,108.885468,-0.25,0.21,0.44,7.5,-7.47374
26.277,1,99.952667,14.301108,-2.522763,109.305588,0.4,0.43,-0.11,7.5,-7.5
26.326,1,105.718941,14.718708,-4.070934,109.136482,-0.19,-0.63,-0.81,7.5,-7.5
26.372999,1,104.141968,14.51069,-3.618297,108.716362,0.02,-0.35,-0.07,7.5,-7.5
26.421,1,102.490829,14.380966,-3.17405,108.970016,0,-0.09,-0.13,7.5,-7.5
26.469999,1,102.683548,14.357972,-3.216854,108.885468,0.36,0.02,0.42,7.5,-7.5
26.518999,1,106.207558,14.721543,-4.194401,108.716362,-0.17,-0.22,-0.32,7.5,-7.5
26.568001,1,108.152298,14.912826,-4.742854,108.716362,0.14,-0.5,0.05,7.5,-7.5
26.618,1,108.254906,14.873323,-4.755523,109.221031,0.2,0,0,7.5,-7.5
26.666,1,109.149994,15.083379,-5.052418,109.051926,0.04,-0.23,-0.05,7.5,-7.5
26.714001,1,109.287514,15.191337,-5.125177,108.970016,0.17,-0.17,-0.19,7.5,-7.5
26.761,1,109.270119,15.167326,-5.112275,109.051926,0.08,-0.24,-0.01,7.5,-7.5
26.809999,1,109.133797,15.091803,-5.051243,108.800911,0.07,-0.08,-0.21,7.5,-7.5
26.860001,1,109.234917,15.047458,-5.061325,109.136482,0.18,-0.28,-0.06,7.5,-7.5
26.908001,1,109.38652,15.058029,-5.103256,109.474693,0.04,-0.17,-0.04,7.5,-7.5
26.955999,1,109.946968,15.039576,-5.237204,108.970016,0.04,-0.07,-0.16,7.5,-7.5
27.003,1,110.228027,15.095868,-5.328297,109.051926,0.03,-0.22,-0.1,7.5,-7.5
27.051001,1,110.211838,15.085334,-5.320518,109.051926,0.05,-0.16,-0.14,7.5,-7.5
27.098,1,109.780022,15.089939,-5.213536,108.800911,0.05,-0.09,0.09,7.5,-7.5
27.145,1,109.920395,15.107691,-5.255328,108.885468,0.06,0.05,0.02,7.5,-7.5
27.191999,1,110.539757,15.147629,-5.42579,109.136482,0.13,-0.3,-0.2,7.5,-7.5
27.239,1,110.747047,15.15428,-5.480211,109.136482,0.08,-0.02,0.01,7.5,-7.5
27.285999,1,110.983986,15.113625,-5.524222,109.556602,-0.03,-0.21,-0.26,7.5,-7.5
27.333,1,111.241943,15.177946,-5.613426,109.221031,0.1,-0.13,0.22,7.5,-7.5
27.382,1,111.759354,15.169023,-5.739367,109.051926,0.01,-0.24,-0.42,7.5,-7.5
27.431999,1,111.766541,15.110913,-5.718198,109.390137,0.11,-0.05,-0.12,7.5,-7.5
27.481001,1,111.157494,15.040207,-5.539449,109.556602,-0.04,0,0.05,7.5,-7.5
27.531,1,111.863907,15.083352,-5.731486,109.051926,0.06,-0.17,0,7.5,-7.5
27.579,1,112.655602,15.173341,-5.963786,109.556602,0.07,-0.17,-0.27,7.5,-7.5
27.627001,1,111.944427,15.004515,-5.72,109.221031,0.14,-0.13,-0.15,7.5,-7.5
27.674,1,111.495598,14.835796,-5.543723,109.221031,-0.02,-0.14,-0.39,7.5,-7.5
27.723,1,111.323639,14.812919,-5.492972,109.474693,0.06,-0.07,0,7.5,-7.5
27.771999,1,111.052582,14.710668,-5.387599,109.725708,0.02,-0.33,-0.23,7.5,-7.5
27.822001,1,110.056168,14.591676,-5.101738,109.390137,-0.01,-0.06,-0.26,7.5,-7.5
27.871,1,108.924591,14.515187,-4.799839,109.641159,0,-0.02,-0.09,7.5,-7.5
27.92,1,108.643875,14.488062,-4.722131,109.474693,0.04,0.37,0.37,7.5,-7.5
27.968,1,108.732018,14.727482,-4.825259,109.305588,0.05,-0.39,-0.16,7.5,-7.5
28.014999,1,109.428947,14.838624,-5.036245,109.474693,-0.23,-0.09,0.08,7.5,-7.5
28.063,1,109.445168,14.836878,-5.039665,109.474693,0.03,-0.22,-0.31,7.5,-7.5
28.113001,1,108.8078,14.746586,-4.850311,109.390137,0,-0.09,0,7.5,-7.5
28.162001,1,108.537132,14.728585,-4.777282,108.885468,0.1,-0.14,-0.2,7.5,-7.5
28.209999,1,108.353539,14.707278,-4.724665,109.136482,0.01,-0.07,0,7.5,-7.5
28.257,1,108.746216,14.719744,-4.825952,109.390137,0.15,-0.13,-0.04,7.5,-7.5
28.305,1,108.793251,14.699152,-4.830642,109.136482,0.02,-0.03,-0.25,7.5,-7.5
28.351999,1,108.517075,14.674529,-4.754131,109.136482,0.03,-0.17,0.1,7.5,-7.5
28.399,1,108.713333,14.648232,-4.793656,109.305588,0.09,-0.16,-0.17,7.5,-7.5
28.445999,1,108.319328,14.600578,-4.680572,109.725708,0.09,-0.07,-0.05,7.5,-7.5
28.493999,1,107.78376,14.546262,-4.531211,108.970016,0.02,-0.1,-0.08,7.5,-7.5
28.541,1,107.877663,14.506423,-4.541335,109.474693,-0.01,-0.07,-0.03,7.5,-7.5
28.587999,1,108.890472,14.528331,-4.796078,108.885468,0.03,-0.22,-0.2,7.5,-7.5
28.636,1,109.508766,14.551142,-4.954314,109.136482,0.15,-0.18,-0.13,7.5,-7.5
28.684999,1,109.419815,14.551224,-4.932644,109.221031,0.11,-0.03,-0.06,7.5,-7.5
28.733999,1,109.556427,14.523768,-4.956209,109.136482,0.08,-0.07,-0.08,7.5,-7.5
28.784,1,109.50592,14.491296,-4.932344,109.051926,0.05,-0.09,-0.15,7.5,-7.5
28.833,1,109.124969,14.452567,-4.826542,109.390137,0.08,-0.07,-0.03,7.5,-7.5
28.881001,1,109.325592,14.530822,-4.902477,109.305588,-0.04,0.02,-0.01,7.5,-7.5
28.927999,1,110.247452,14.557149,-5.135264,109.305588,-0.06,0.01,-0.02,7.5,-7.5
28.976,1,111.405685,14.573935,-5.420684,109.305588,0.1,0.02,-0.15,7.5,-7.5
29.025,1,113.839851,14.875851,-6.127979,108.716362,0.1,-0.22,-0.29,7.5,-7.5
29.073999,1,114.703362,15.122895,-6.443869,109.474693,0,-0.09,-0.12,7.5,-7.5
29.124001,1,114.873734,15.244172,-6.539249,109.641159,-0.02,0.1,0,7.5,-7.5
29.172001,1,116.338387,15.582952,-7.053701,108.885468,0,0.04,0.02,7.5,-7.5
29.219,1,118.078049,15.92848,-7.650781,109.305588,0.02,-0.08,-0.23,7.5,-7.5
29.267,1,119.275368,16.184698,-8.07789,109.474693,0.01,0.04,-0.05,7.5,-7.5
29.316,1,121.121994,16.574097,-8.745409,109.390137,-0.11,-0.03,0.03,7.5,-7.5
29.365,1,123.941223,17.015333,-9.696041,109.221031,0.04,0,-0.17,7.5,-7.5
29.414,1,125.91655,17.47459,-10.462896,109.390137,0.01,-0.3,-0.73,7.5,-7.5
29.464001,1,123.935371,17.385662,-9.914497,108.547256,0,0.47,0.27,7.5,-7.5
29.511999,1,121.280029,17.019175,-9.030753,109.221031,-0.32,0.48,0.82,7.5,-7.5
29.559999,1,119.869461,16.634783,-8.463612,109.305588,0.15,-0.09,-0.08,7.5,-7.5
29.607,1,118.854164,16.367693,-8.067147,109.556602,0.1,-0.03,-0.16,7.5,-7.5
29.653999,1,116.939064,15.968153,-7.386244,109.641159,-0.03,0.17,-0.27,7.5,-7.5
29.701,1,115.26519,15.705039,-6.843231,109.305588,0.02,-0.14,0.12,7.5,-7.5
29.749001,1,115.100487,15.686229,-6.793556,109.390137,0.04,0.14,-0.25,7.5,-7.5
29.796,1,115.91153,15.755777,-7.028674,109.641159,0.1,0.08,0.02,7.5,-7.5
29.843,1,116.502602,15.833042,-7.212512,109.810265,0.02,0.02,-0.17,7.5,-7.5
29.889999,1,116.236656,15.851606,-7.154673,109.474693,0.05,0.21,-0.42,7.5,-7.5
29.938,1,115.529488,15.771102,-6.939719,109.474693,-0.04,0.23,0.23,7.5,-7.5
29.987,1,115.627586,15.849069,-7.000222,109.474693,0.14,0.01,-0.25,7.5,-7.5
30.037001,1,116.087311,16.020679,-7.196335,109.390137,0,-0.21,-0.09,7.5,-7.5
30.086,1,116.289063,16.052053,-7.262259,109.390137,-0.13,-0.01,-0.11,7.5,-7.5
30.135,1,115.864647,15.761236,-7.019387,109.390137,0.06,0.2,-0.11,7.5,-7.5
32.169998,1,94.70388,10.923731,-0.906757,109.051926,-0.09,0.03,0.04,7.5,-7.5
34.194,1,89.241798,10.836342,0.145125,109.641159,0.02,-0.07,-0.02,7.5,1.26651
36.229,1,111.080612,33.559116,-13.419884,109.641159,-0.7,0.54,-0.17,7.5,-7.5
38.252998,1,107.97084,26.510475,-8.749031,109.894814,0.11,0.09,0.02,7.5,-7.5
40.271999,0,108.445145,19.863285,-6.520886,109.136482,-0.23,0.66,0.26,0,0
42.313999,0,106.313972,19.949554,-5.821594,108.885468,-0.04,0.08,0.08,0,0
44.356998,0,110.567101,19.950956,-7.267328,109.221031,-0.14,-0.11,-0.07,0,0
46.403,0,101.22731,18.071228,-3.63513,109.305588,1.13,-0.94,-0.52,0,0
0.048,1,86.905357,17.983576,1.003929,109.474693,0.04,-0.33,0.13,7.5,7.5
0.097,1,73.551285,18.861694,5.525344,109.725708,-0.16,1.32,0.08,7.5,7.5
0.145,1,74.332222,18.823523,5.259653,109.810265,-0.21,0.62,0.15,7.5,7.5
0.192,1,78.227203,18.498587,3.905049,109.894814,0.17,-0.42,-0.18,7.5,7.5
0.24,1,79.540237,18.406433,3.457297,109.390137,0.08,0.52,-0.1,7.5,7.5
0.287,1,81.604828,18.361235,2.774329,110.061279,0.14,0.02,-0.04,7.5,7.5
0.334,1,83.628372,18.348232,2.10792,109.641159,-0.08,-0.08,0.09,7.5,7.5
0.381,1,84.855263,18.412241,1.709885,109.641159,-0.16,0.17,-0.37,7.5,7.5
0.428,1,85.482582,18.451124,1.505306,109.221031,0.33,-0.17,0.21,7.5,7.5
0.475,1,87.0905,18.49581,0.972738,109.390137,0.18,0.25,-0.3,7.5,4.986389
0.523,1,90.81044,18.469038,-0.270683,109.221031,0.04,-0.18,-0.01,7.5,-1.370994
0.571,1,93.689552,18.485504,-1.232404,109.474693,-0.22,-0.6,0.29,7.5,-6.241494
0.621,1,95.423019,18.494959,-1.810699,109.221031,0.11,-0.14,0,7.5,-7.5
0.67,1,96.099533,18.535675,-2.040369,109.725708,0.18,0.03,-0.13,7.5,-7.5
0.719,1,97.924347,18.613134,-2.658415,109.136482,-0.07,-0.03,0.02,7.5,-7.5
0.768,1,98.386833,18.612879,-2.812321,108.716362,0.07,-0.08,-0.02,7.5,-7.5
0.815,1,98.231522,18.596212,-2.75789,109.390137,0.04,0.13,0.03,7.5,-7.5
0.863,1,98.317932,18.622581,-2.790899,108.885468,0.18,0.21,-0.28,7.5,-7.5
0.912,1,99.108162,18.593792,-3.04843,109.136482,0.06,-0.08,-0.17,7.5,-7.5
0.961,1,99.167656,18.577484,-3.065227,109.136482,-0.03,0.18,0,7.5,-7.5
1.01,1,99.07106,18.579937,-3.033595,108.800911,0.02,0.2,-0.15,7.5,-7.5
1.06,1,99.956352,18.632429,-3.336391,108.547256,0.07,-0.02,-0.06,7.5,-7.5
1.108,1,101.392525,18.707533,-3.826689,108.970016,0.13,0.11,-0.08,7.5,-7.5
1.156,1,101.777222,18.728008,-3.958304,109.474693,0.11,-0.19,0,7.5,-7.5
1.203,1,100.971825,18.729242,-3.692178,109.641159,0.06,0.19,-0.13,7.5,-7.5
1.252,1,100.165947,18.720785,-3.423036,109.305588,0.08,0.02,0.01,7.5,-7.5
1.302,1,100.165619,18.756907,-3.429969,109.474693,-0.03,0.05,-0.1,7.5,-7.5
1.351,1,99.294128,18.747921,-3.137507,108.716362,0.07,0.07,0.19,7.5,-7.5
1.401,1,99.201096,18.755739,-3.107859,108.970016,-0.02,-0.2,-0.07,7.5,-7.5
1.45,1,98.474312,18.718582,-2.858556,109.641159,0.29,0.39,-0.05,7.5,-7.5
1.498,1,98.757233,18.719242,-2.953335,109.390137,0.09,0.03,-0.06,7.5,-7.5
1.545,1,98.57122,18.706276,-2.888972,108.970016,-0.04,0.14,0,7.5,-7.5
1.592,1,97.969604,18.70764,-2.688152,109.221031,0.12,0.13,-0.09,7.5,-7.5
1.64,1,97.838722,18.753942,-2.651266,109.305588,-0.03,0.12,0.07,7.5,-7.5
1.687,1,99.315292,18.840979,-3.161449,109.136482,0.03,0.3,-0.19,7.5,-7.5
1.734,1,101.989929,18.976503,-4.086106,109.641159,0.19,-0.09,-0.56,7.5,-7.5
1.781,1,102.80442,19.096992,-4.387875,108.970016,0.06,0.05,0.62,7.5,-7.5
1.828,1,101.83902,19.016665,-4.04478,109.390137,0.06,-0.35,-0.21,7.5,-7.5
1.875,1,100.163635,18.891293,-3.455766,108.970016,0.21,-0.06,-0.63,7.5,-7.5
1.924,1,100.786438,18.899591,-3.666182,109.305588,0.23,0.17,-0.06,7.5,-7.5
1.974,1,101.693596,18.971514,-3.985686,109.221031,0.06,-0.47,-0.04,7.5,-7.5
2.023,1,101.432693,18.939594,-3.891171,108.970016,0,0.47,-0.25,7.5,-7.5
2.072,1,101.821198,18.966869,-4.027283,108.970016,0.21,0.29,-0.07,7.5,-7.5
2.122,1,102.592255,19.053385,-4.305977,109.474693,0.06,0.05,-0.02,7.5,-7.5
2.169,1,103.551178,19.179317,-4.659288,109.474693,0,-0.11,-0.04,7.5,-7.5
2.216,1,104.394745,19.275665,-4.968829,109.390137,0,-0.02,0,7.5,-7.5
2.265,1,104.538383,19.297419,-5.023296,109.474693,0.07,0.02,-0.17,7.5,-7.5
2.314,1,104.679588,19.317118,-5.076343,109.641159,-0.13,0.02,0.28,7.5,-7.5
2.363,1,104.420982,19.276049,-4.977639,108.970016,0.17,0.19,-0.07,7.5,-7.5
2.412,1,103.872749,19.205132,-4.77425,109.136482,0.02,-0.01,-0.05,7.5,-7.5
2.459,1,101.992691,19.022785,-4.097619,109.051926,0.11,0.01,0.11,7.5,-7.5
2.507,1,98.127151,18.764732,-2.749828,108.970016,0.04,0.08,-0.11,7.5,-7.5
2.555,1,96.307693,18.674379,-2.126606,109.051926,0.02,0.69,-0.23,7.5,-7.5
2.605,1,97.633087,18.673069,-2.570249,109.136482,-0.22,-0.34,0,7.5,-7.5
2.654,1,98.232605,18.660627,-2.768506,109.136482,0,0.07,0.23,7.5,-7.5
2.703,1,100.52977,18.737047,-3.547094,109.051926,0.37,-0.04,-0.19,7.5,-7.5
2.752,1,100.407356,18.837786,-3.526742,109.305588,0.1,-0.55,0.08,7.5,-7.5
2.8,1,97.184074,18.734983,-2.428699,109.390137,-0.01,0.08,0.02,7.5,-7.5
2.847,1,95.400772,18.647024,-1.819198,110.061279,-0.13,-0.45,-0.12,7.5,-7.5
2.895,1,91.313293,18.584642,-0.441527,109.556602,-0.01,0.78,-0.28,7.5,-2.221652
2.942,1,90.694725,18.630365,-0.234204,109.474693,0.03,1.48,0.35,7.5,-1.190642
2.989,1,98.844238,18.688965,-2.977149,109.556602,-0.06,-0.77,-0.42,7.5,-7.5
3.036,1,101.899483,18.753435,-4.004632,109.051926,0.1,-0.38,1.01,7.5,-7.5
3.083,1,102.390373,18.8549,-4.190857,109.136482,0.17,-0.33,-0.28,7.5,-7.5
3.131,1,100.974106,18.688623,-3.684371,109.221031,-0.03,0.18,-0.15,7.5,-7.5
3.178,1,100.674339,18.603697,-3.567657,109.474693,-0.16,-0.13,-0.07,7.5,-7.5
3.227,1,100.103035,18.554605,-3.369772,109.390137,0.08,-0.01,-0.17,7.5,-7.5
3.276,1,99.167938,18.489586,-3.049793,109.136482,0.1,0.24,0,7.5,-7.5
3.326,1,98.452011,18.435387,-2.805026,109.390137,-0.09,0.11,-0.04,7.5,-7.5
3.375,1,98.748672,18.473276,-2.908921,109.556602,-0.08,0.17,-0.24,7.5,-7.5
3.423,1,99.90519,18.558704,-3.305357,109.305588,-0.06,-0.04,-0.03,7.5,-7.5
3.47,1,101.009155,18.595825,-3.676287,109.136482,0.08,-0.25,0.03,7.5,-7.5
3.518,1,100.795021,18.572531,-3.601072,109.221031,0.11,0.18,-0.08,7.5,-7.5
3.567,1,100.750031,18.562653,-3.584197,109.305588,-0.08,-0.15,0,7.5,-7.5
3.616,1,99.805161,18.511692,-3.263397,108.970016,0.05,0.07,-0.11,7.5,-7.5
3.666,1,99.366379,18.489586,-3.115055,108.970016,-0.05,-0.01,-0.07,7.5,-7.5
3.714,1,98.725945,18.456551,-2.898584,109.136482,-0.01,-0.07,0.01,7.5,-7.5
3.762,1,97.488312,18.387747,-2.480623,109.221031,0,0.03,-0.21,7.5,-7.5
3.809,1,96.536362,18.348471,-2.162076,109.641159,-0.03,-0.07,0.05,7.5,-7.5
3.858,1,95.911766,18.328205,-1.954139,109.136482,0.01,-0.01,-0.08,7.5,-7.5
3.907,1,95.334129,18.334709,-1.764585,109.390137,0.02,0.05,-0.27,7.5,-7.5
3.957,1,95.220528,18.38727,-1.732452,109.474693,0.12,-0.08,0.09,7.5,-7.5
4.005,1,95.437096,18.393354,-1.804699,109.221031,0.14,0.02,-0.16,7.5,-7.5
4.053,1,95.494438,18.39963,-1.824311,109.641159,0.04,-0.17,0.41,7.5,-7.5
4.1,1,94.895477,18.414425,-1.627493,108.970016,0.09,0.38,-0.34,7.5,-7.5
4.148,1,95.331329,18.472574,-1.777836,109.051926,-0.03,0.02,0.23,7.5,-7.5
4.195,1,95.46357,18.507593,-1.825477,109.641159,0.18,0.17,-0.32,7.5,-7.5
4.242,1,94.212914,18.499922,-1.408078,109.390137,-0.27,-0.27,-0.43,7.5,-7.220223
4.289,1,95.207405,18.458288,-1.735227,109.305588,-0.3,0.05,0.21,7.5,-7.5
4.336,1,99.091393,18.560465,-3.036922,109.474693,0.14,0.61,-0.11,7.5,-7.5
4.383,1,105.849709,18.950335,-5.35725,109.051926,0.08,0.07,-0.08,7.5,-7.5
4.431,1,108.861351,19.117107,-6.393693,109.221031,0.13,-0.38,-0.46,7.5,-7.5
4.48,1,108.625053,19.136848,-6.323768,109.97937,-0.18,0.71,0.13,7.5,-7.5
4.529,1,108.841049,19.142359,-6.396005,109.136482,0.28,-0.08,-0.81,7.5,-7.5
4.578,1,108.822449,19.157463,-6.395402,109.390137,-0.21,0.23,0.42,7.5,-7.5
4.628,1,108.369301,19.104507,-6.229469,109.136482,-0.01,0.21,-0.59,7.5,-7.5
4.677,1,108.11837,19.112278,-6.150405,109.474693,-0.06,0.31,0.08,7.5,-7.5
4.725,1,108.781326,19.297533,-6.432082,109.641159,0.1,0.17,-0.13,7.5,-7.5
4.772,1,108.617485,19.264717,-6.366553,108.970016,-0.03,0.14,-0.38,7.5,-7.5
4.82,1,108.184502,19.310654,-6.240646,109.305588,0.09,0.02,0.33,7.5,-7.5
4.87,1,106.824135,19.134306,-5.734427,109.136482,-0.02,0.69,-0.53,7.5,-7.5
4.919,1,106.224564,19.147858,-5.541165,109.390137,0.12,-0.08,-0.02,7.5,-7.5
4.968,1,105.301025,19.025864,-5.199476,108.800911,-0.23,0.43,-0.04,7.5,-7.5
5.017,1,105.166664,18.817774,-5.094944,109.221031,-0.08,0.11,0.05,7.5,-7.5
5.064,1,103.910507,18.572821,-4.618175,109.136482,0.39,-0.36,-0.03,7.5,-7.5
5.112,1,101.257004,18.40427,-3.716404,109.556602,-0.53,0.91,-0.67,7.5,-7.5
5.16,1,100.335358,18.222687,-3.380224,109.474693,0.12,0.74,0.15,7.5,-7.5
5.21,1,104.302773,18.417625,-4.702757,109.136482,0.18,-0.06,-0.2,7.5,-7.5
5.259,1,106.226585,18.480797,-5.335633,108.970016,-0.04,-0.01,-0.08,7.5,-7.5
5.308,1,106.876007,18.532677,-5.55849,109.305588,0.2,0.27,0.05,7.5,-7.5
5.355,1,107.760162,18.616152,-5.866726,109.641159,-0.26,0.04,-0.04,7.5,-7.5
5.403,1,108.852531,18.734869,-6.254372,109.221031,-0.09,0.01,-0.08,7.5,-7.5
5.451,1,109.348915,18.80858,-6.438303,108.970016,-0.09,-0.16,-0.14,7.5,-7.5
5.498,1,108.571976,18.667873,-6.141906,109.305588,0.28,0.16,-0.08,7.5,-7.5
5.546,1,108.428574,18.653816,-6.091496,109.136482,0.09,0.1,0.17,7.5,-7.5
5.593,1,108.488243,18.616014,-6.097238,109.221031,-0.08,-0.08,0.05,7.5,-7.5
5.64,1,108.219803,18.576744,-5.998869,109.221031,0.3,0.21,0,7.5,-7.5
5.687,1,108.042336,18.556053,-5.935559,109.221031,-0.3,0.31,0.03,7.5,-7.5
5.734,1,108.253639,18.588072,-6.013184,108.885468,0.09,0.06,-0.27,7.5,-7.5
5.783,1,108.127899,18.558521,-5.96344,109.221031,0.06,0.19,-0.03,7.5,-7.5
5.832,1,108.717377,18.612846,-6.168416,109.390137,0,0,-0.15,7.5,-7.5
5.881,1,108.765381,18.61091,-6.182846,109.221031,0.03,0,0.1,7.5,-7.5
5.931,1,108.241791,18.534246,-5.991177,109.136482,0.09,0.05,-0.07,7.5,-7.5
5.98,1,107.851295,18.475042,-5.847916,108.885468,-0.09,0.28,-0.13,7.5,-7.5
6.028,1,107.981606,18.504377,-5.898752,109.474693,-0.06,0.02,0,7.5,-7.5
6.075,1,107.930428,18.497553,-5.880246,109.390137,0.11,-0.08,-0.29,7.5,-7.5
6.123,1,107.596764,18.445793,-5.758106,109.136482,0.07,0.14,-0.02,7.5,-7.5
6.172,1,107.610298,18.380816,-5.740586,108.885468,0.01,0.04,-0.07,7.5,-7.5
6.222,1,107.31205,18.340811,-5.633911,109.051926,0.1,0.17,0,7.5,-7.5
6.271,1,107.64138,18.369604,-5.746511,108.800911,0.05,0,-0.08,7.5,-7.5
6.32,1,108.011566,18.381216,-5.866391,109.051926,-0.01,0.02,0.01,7.5,-7.5
6.367,1,107.731598,18.34947,-5.768215,108.631805,0.01,0.24,-0.06,7.5,-7.5
6.414,1,107.197685,18.343306,-5.598882,109.390137,-0.06,0,-0.18,7.5,-7.5
6.463,1,106.313957,18.247417,-5.291105,108.380791,0.04,0.08,-0.07,7.5,-7.5
6.513,1,105.768555,18.201105,-5.106161,109.556602,0,0.3,0.12,7.5,-7.5
6.561,1,106.429771,18.259914,-5.331414,108.970016,-0.03,-0.08,-0.09,7.5,-7.5
6.61,1,106.793236,18.282288,-5.452601,109.390137,0.09,0.08,-0.03,7.5,-7.5
6.657,1,107.175766,18.278477,-5.571106,109.136482,0.01,0.1,-0.12,7.5,-7.5
6.704,1,107.5205,18.315897,-5.691087,109.474693,-0.05,-0.08,0,7.5,-7.5
6.751,1,107.329231,18.302732,-5.626849,109.641159,-0.01,0.17,-0.02,7.5,-7.5
6.798,1,107.220901,18.276104,-5.584429,109.305588,-0.01,0.11,-0.05,7.5,-7.5
6.846,1,107.259239,18.280479,-5.597873,109.556602,0.03,-0.04,0,7.5,-7.5
6.894,1,107.074913,18.283268,-5.541152,109.305588,-0.03,0.13,-0.03,7.5,-7.5
6.941,1,106.938728,18.268141,-5.493554,109.221031,0.04,0.08,-0.01,7.5,-7.5
6.988,1,107.58667,18.344988,-5.721297,109.390137,0,0.03,0.42,7.5,-7.5
7.036,1,107.957016,18.378801,-5.848444,109.305588,-0.03,0.06,-0.1,7.5,-7.5
7.085,1,107.949654,18.407927,-5.856239,109.221031,0.04,0.05,0.09,7.5,-7.5
7.134,1,108.204834,18.42198,-5.940715,109.390137,-0.02,-0.01,-0.06,7.5,-7.5
7.184,1,108.48394,18.432081,-6.031612,109.305588,0.01,0.11,-0.08,7.5,-7.5
7.233,1,108.91925,18.423569,-6.164398,109.305588,-0.06,0.25,-0.19,7.5,-7.5
7.282,1,110.733635,18.621992,-6.802718,109.136482,0.1,-0.41,-0.08,7.5,-7.5
7.33,1,110.940964,18.632385,-6.87124,109.474693,0,0.1,-0.1,7.5,-7.5
7.377,1,110.384659,18.604446,-6.687623,109.474693,-0.03,0.18,-0.01,7.5,-7.5
7.426,1,110.868164,18.59951,-6.835877,109.305588,0.08,0.04,0.02,7.5,-7.5
7.475,1,111.297829,18.711695,-7.013419,109.556602,0.06,0.04,-0.11,7.5,-7.5
7.524,1,111.372902,18.728966,-7.043826,109.221031,0.01,0,-0.11,7.5,-7.5
7.574,1,111.090637,18.695593,-6.94281,109.556602,0.05,0.01,-0.02,7.5,-7.5
7.621,1,111.186844,18.708853,-6.977702,109.725708,-0.07,0.1,0,7.5,-7.5
7.669,1,111.554138,18.759731,-7.112418,109.305588,0.08,0.05,-0.13,7.5,-7.5
7.717,1,111.33445,18.720932,-7.02854,109.556602,0.07,0.16,-0.04,7.5,-7.5
7.766,1,111.191422,18.702272,-6.976884,109.390137,-0.01,0.09,-0.13,7.5,-7.5
7.815,1,111.259506,18.719496,-7.004655,109.305588,0.04,0.03,0,7.5,-7.5
7.864,1,111.047134,18.690308,-6.927142,109.641159,0.08,-0.01,-0.17,7.5,-7.5
7.911,1,110.40184,18.633432,-6.703889,109.390137,-0.04,0.23,0.18,7.5,-7.5
7.959,1,110.198532,18.708193,-6.669065,109.725708,0.01,0.22,-0.16,7.5,-7.5
8.006,1,110.771286,18.744486,-6.862332,109.390137,0,0.14,-0.09,7.5,-7.5
8.053,1,111.850632,18.87138,-7.250362,109.305588,0.08,-0.24,-0.21,7.5,-7.5
8.1,1,111.046822,18.78113,-6.962822,109.221031,-0.08,0.27,0.06,7.5,-7.5
8.147,1,111.139313,18.702177,-6.960525,109.474693,0.24,0.18,0.03,7.5,-7.5
8.195,1,111.59256,18.466377,-7.006082,109.474693,-0.15,0.88,-0.15,7.5,-7.5
8.242,1,113.65065,18.563351,-7.67275,109.641159,-0.27,0.26,-0.02,7.5,-7.5
8.289,1,113.708633,18.470711,-7.649514,109.641159,0.16,-0.18,0.07,7.5,-7.5
8.338,1,113.633202,18.477726,-7.630025,109.221031,-0.03,0,0.49,7.5,-7.5
8.387,1,113.180656,18.499996,-7.50294,108.970016,0.14,0.51,-0.06,7.5,-7.5
8.436,1,109.964691,18.109138,-6.371174,109.641159,0.12,0,0,7.5,-7.5
8.486,1,106.764854,17.845472,-5.30531,109.474693,0,0.35,-0.13,7.5,-7.5
8.535,1,106.356522,17.806986,-5.168664,109.221031,-0.07,0.45,0,7.5,-7.5
8.583,1,107.425873,17.926134,-5.533558,109.051926,0.02,0.15,0,7.5,-7.5
8.63,1,107.216293,17.894875,-5.45916,109.474693,0.1,-0.17,-0.11,7.5,-7.5
8.678,1,106.326912,17.82172,-5.164203,109.136482,0.06,0.03,-0.03,7.5,-7.5
8.728,1,105.344246,17.72517,-4.834529,109.474693,-0.14,-0.31,0.21,7.5,-7.5
8.777,1,99.840797,17.326166,-3.052086,109.390137,0.27,-0.2,-0.16,7.5,-7.5
8.826,1,95.672958,17.158298,-1.748187,109.390137,-0.15,0.34,-0.43,7.5,-7.5
8.875,1,93.823624,17.115589,-1.176413,109.390137,-0.25,0.47,-0.32,7.5,-6.38703
8.924,1,93.493378,17.07909,-1.07254,108.970016,-0.02,0.09,-0.21,7.5,-5.835382
8.971,1,92.770096,17.077662,-0.850626,109.474693,0.02,0.08,-0.13,7.5,-4.747477
9.019,1,91.777168,17.061152,-0.545295,109.390137,0.02,0.31,-0.13,7.5,-3.006363
9.068,1,91.901039,17.084265,-0.584145,110.061279,-0.02,0.15,-0.16,7.5,-3.17552
9.118,1,92.40406,17.09219,-0.738989,109.556602,0.01,0.03,-0.07,7.5,-3.966691
9.167,1,92.673141,17.125345,-0.823315,109.390137,-0.01,0.18,-0.01,7.5,-4.465249
9.215,1,93.405952,17.069414,-1.045087,109.725708,0.03,0.19,-0.05,7.5,-5.761712
9.262,1,94.863136,17.12254,-1.49608,109.725708,-0.15,-0.21,-0.21,7.5,-7.5
9.309,1,95.153641,17.081917,-1.581195,109.97937,0.07,-0.05,-0.02,7.5,-7.5
9.359,1,94.964073,17.054281,-1.520533,109.305588,-0.09,0.04,-0.15,7.5,-7.5
9.406,1,95.119514,17.016407,-1.564325,109.474693,0.04,0,-0.06,7.5,-7.5
9.453,1,94.983208,16.997995,-1.521016,109.305588,0.18,0.06,-0.04,7.5,-7.5
9.501,1,94.688683,16.974861,-1.429341,109.474693,0.01,0.08,-0.07,7.5,-7.5
9.548,1,94.667358,16.96715,-1.422158,108.970016,0,0.05,0.05,7.5,-7.5
9.595,1,94.900887,16.959974,-1.492432,108.970016,0.05,-0.05,-0.12,7.5,-7.5
9.642,1,94.719124,16.954426,-1.436721,108.970016,-0.03,0.09,-0.13,7.5,-7.5
9.691,1,94.497055,16.94775,-1.368693,109.136482,0.03,0.05,0.09,7.5,-7.5
9.74,1,94.426208,16.945805,-1.347097,109.390137,0.05,0,-0.11,7.5,-7.393595
9.789,1,94.512749,16.962481,-1.374752,109.051926,-0.03,-0.04,-0.06,7.5,-7.5
9.839,1,94.516281,16.962481,-1.375825,109.810265,0,0.06,-0.16,7.5,-7.451847
9.888,1,94.466888,16.968227,-1.361311,109.641159,0.04,0.06,0.05,7.5,-7.461547
9.935,1,94.557747,16.970848,-1.389167,109.390137,-0.06,-0.04,-0.13,7.5,-7.5
9.982,1,94.309425,16.949657,-1.311958,109.221031,0.08,0.14,-0.02,7.5,-7.385628
10.031,1,94.333061,16.950293,-1.319191,109.810265,-0.09,-0.08,-0.02,7.5,-7.238
10.08,1,94.276299,16.948404,-1.301786,109.136482,0.09,0,-0.15,7.5,-7.143183
10.13,1,94.073563,16.957003,-1.240798,109.221031,0.03,0.01,-0.06,7.5,-6.721363
10.179,1,94.386444,16.922754,-1.333052,109.474693,0.04,-0.02,-0.17,7.5,-7.327172
10.227,1,94.319702,16.906778,-1.311553,109.305588,0.12,0.09,-0.04,7.5,-7.307465
10.274,1,94.667801,16.916521,-1.417776,109.556602,-0.06,-0.14,-0.11,7.5,-7.5
10.322,1,94.379051,16.915079,-1.330151,109.051926,0.13,0.18,-0.02,7.5,-7.407954
10.371,1,94.607399,16.914528,-1.399293,109.136482,-0.05,-0.04,-0.11,7.5,-7.5
10.42,1,94.809776,16.920607,-1.461161,109.390137,0.02,-0.04,0,7.5,-7.5
10.47,1,94.279327,16.905521,-1.299136,109.136482,0.01,0.07,-0.14,7.5,-7.060874
10.519,1,94.164398,16.902445,-1.264147,109.221031,0,0.13,-0.07,7.5,-6.956263
10.568,1,94.465324,16.910595,-1.35591,109.221031,0.01,-0.07,-0.07,7.5,-7.458934
10.615,1,94.441643,16.909948,-1.348679,109.221031,-0.01,0.13,-0.07,7.5,-7.5
10.663,1,94.417953,16.909313,-1.341449,109.556602,0,-0.01,-0.04,7.5,-7.473672
10.71,1,94.370575,16.908035,-1.326988,109.725708,0.07,0.04,-0.04,7.5,-7.490428
10.759,1,94.718666,16.917871,-1.433307,109.221031,-0.1,-0.02,-0.08,7.5,-7.5
10.807,1,94.606094,16.907484,-1.398269,109.051926,0.12,0.01,-0.02,7.5,-7.5
10.854,1,94.352592,16.900364,-1.320971,108.800911,-0.02,0.09,-0.09,7.5,-7.459609
10.902,1,94.706802,16.910841,-1.429075,109.725708,-0.05,-0.1,0.04,7.5,-7.5
10.95,1,94.889061,16.916357,-1.484782,108.970016,-0.02,-0.02,-0.16,7.5,-7.5
10.997,1,94.690201,16.91016,-1.423983,109.556602,0.06,0.03,0,7.5,-7.5
11.044,1,94.479286,16.897158,-1.359057,109.474693,0.07,0.14,-0.04,7.5,-7.5
11.093,1,94.803856,16.906532,-1.458148,109.556602,-0.08,-0.03,-0.03,7.5,-7.5
11.143,1,94.75415,16.912203,-1.443536,110.061279,0.04,0,-0.09,7.5,-7.5
11.192,1,94.349052,16.900364,-1.319902,109.97937,0.04,0.11,-0.06,7.5,-7.264626
11.241,1,94.487701,16.904207,-1.362216,109.474693,-0.06,0.06,-0.09,7.5,-7.496313
11.29,1,94.900848,16.923388,-1.489015,109.725708,0.03,-0.03,-0.09,7.5,-7.5
11.338,1,94.629776,16.908154,-1.4055,109.725708,0.09,0.09,-0.11,7.5,-7.5
11.385,1,94.175003,16.902445,-1.267357,109.641159,0,-0.02,-0.15,7.5,-7.155251
11.433,1,94.101334,16.878302,-1.243105,109.894814,0.09,0.18,-0.03,7.5,-6.938144
11.483,1,94.624794,16.912542,-1.404445,109.556602,0.07,0.12,-0.04,7.5,-7.5
11.532,1,94.917465,16.813677,-1.483811,109.725708,0.25,-0.08,-0.05,7.5,-7.5
11.582,1,95.712975,16.791134,-1.720541,109.810265,-0.03,0.11,0,7.5,-7.5
11.631,1,97.476349,16.847988,-2.256545,109.97937,0.02,-0.06,-0.23,7.5,-7.5
11.678,1,98.365814,16.873371,-2.526831,109.810265,0.01,0.02,-0.23,7.5,-7.5
11.725,1,99.065033,16.850451,-2.732012,109.894814,0.12,-0.09,0,7.5,-7.5
11.774,1,99.049469,16.835327,-2.724892,109.641159,0.14,-0.05,-0.1,7.5,-7.5
11.823,1,98.264549,16.79001,-2.483481,109.641159,0.04,0.04,0.02,7.5,-7.5
11.873,1,97.811089,16.812012,-2.351417,110.061279,0.06,0.15,-0.05,7.5,-7.5
11.922,1,97.524948,16.855974,-2.272267,109.474693,-0.07,-0.1,0.11,7.5,-7.5
11.969,1,96.973808,16.838392,-2.104462,109.556602,0.03,0.08,-0.15,7.5,-7.5
12.016,1,96.596657,16.899731,-1.998962,109.556602,-0.03,0.04,-0.1,7.5,-7.5
12.063,1,96.561081,16.932289,-1.992252,109.725708,-0.03,0.09,0.07,7.5,-7.5
12.11,1,95.833618,16.956078,-1.775008,109.725708,0.05,-0.17,-0.03,7.5,-7.5
12.157,1,94.482666,16.924126,-1.362307,109.556602,0.15,-0.05,-0.03,7.5,-7.5
12.204,1,92.862389,16.898098,-0.869123,109.894814,0.11,0,-0.13,7.5,-4.90559
12.252,1,90.881477,16.799137,-0.266103,109.136482,-0.12,0.06,-0.05,7.5,-1.491178
12.299,1,89.59024,16.797482,0.12369,109.305588,-0.13,0.25,-0.2,7.5,0.702259
12.346,1,89.380753,16.713089,0.185932,109.305588,0.19,-0.24,-0.3,7.5,1.061286
12.396,1,89.368004,16.670607,0.189248,109.556602,0.05,-0.1,-0.47,7.5,1.042791
12.445,1,89.486816,16.733906,0.154294,109.305588,0.01,-0.02,-0.12,7.5,0.857228
12.494,1,89.658302,16.761827,0.102913,109.725708,0,0.37,0,7.5,0.570769
12.544,1,91.032837,16.772423,-0.311278,109.641159,0.04,-0.01,-0.07,7.5,-1.704197
12.592,1,91.786179,16.849813,-0.54087,109.810265,-0.03,0,-0.22,7.5,-3.021605
12.639,1,91.473656,16.896523,-0.447576,109.894814,0.03,0.29,0.07,7.5,-2.525597
12.687,1,92.023582,16.867405,-0.613421,109.390137,-0.07,0.1,-0.16,7.5,-3.423212
12.736,1,93.235199,16.979282,-0.987191,109.474693,0,0.13,-0.52,7.5,-5.404117
12.785,1,93.762566,17.061838,-1.153768,109.051926,0.01,0.08,0.06,7.5,-6.285037
12.835,1,94.327599,17.147274,-1.333714,109.474693,-0.16,0.23,-0.26,7.5,-7.140521
12.884,1,95.600723,17.22154,-1.73277,109.894814,0.01,-0.04,-0.1,7.5,-7.5
12.933,1,95.352257,17.278179,-1.661885,109.810265,-0.13,0.37,-0.29,7.5,-7.5
12.981,1,96.03186,17.359127,-1.881331,110.061279,0.22,0.19,0,7.5,-7.5
13.028,1,96.092377,17.440542,-1.909696,109.641159,-0.09,0.01,-0.09,7.5,-7.5
13.077,1,95.406189,17.395168,-1.690724,109.810265,0.17,0.4,-0.44,7.5,-7.5
13.126,1,95.41291,17.437397,-1.697174,109.810265,-0.27,0.29,0.26,7.5,-7.5
13.176,1,95.093292,17.376654,-1.591331,109.474693,-0.03,0.24,-0.16,7.5,-7.5
